,TrialNumber,n_back,Stimulus_Letter,Response_Time,Correct_Response,Response,time_sec
0,1,One Back Task,L,0.0,3.0,,0.0
1,1,One Back Task,A,838.0,3.0,3.0,2.0154999999999745
2,1,One Back Task,E,374.0,3.0,3.0,4.0150000000001
3,1,One Back Task,E,405.0,4.0,4.0,6.0150000000001
4,1,One Back Task,E,39.0,4.0,4.0,8.014499999999998
5,1,One Back Task,O,190.0,3.0,3.0,10.014499999999998
6,1,One Back Task,A,272.0,4.0,4.0,12.048000000000002
7,1,One Back Task,A,486.0,4.0,3.0,14.081000000000131
8,1,One Back Task,H,165.0,3.0,4.0,16.114500000000135
9,1,One Back Task,J,310.0,3.0,3.0,18.147000000000162
10,1,One Back Task,D,443.0,3.0,3.0,20.180500000000166
11,1,One Back Task,B,184.0,3.0,3.0,22.212999999999965
12,1,One Back Task,L,95.0,3.0,3.0,24.24700000000007
13,1,One Back Task,V,86.0,3.0,3.0,26.279999999999973
14,1,One Back Task,V,92.0,4.0,4.0,28.330000000000155
15,1,One Back Task,N,42.0,3.0,3.0,30.395999999999958
16,1,One Back Task,V,94.0,3.0,3.0,32.462999999999965
17,1,One Back Task,L,378.0,3.0,3.0,34.51150000000007
18,1,One Back Task,A,162.0,3.0,3.0,36.54449999999997
19,1,One Back Task,E,444.0,3.0,3.0,38.577999999999975
20,1,One Back Task,J,310.0,3.0,3.0,40.627500000000055
21,1,One Back Task,S,442.0,3.0,3.0,42.660499999999956
22,2,Three Back Task,P,0.0,3.0,,59.70900000000006
23,2,Three Back Task,F,0.0,3.0,,61.825000000000045
24,2,Three Back Task,Q,0.0,3.0,,63.94150000000013
25,2,Three Back Task,C,225.0,3.0,3.0,66.07400000000007
26,2,Three Back Task,N,377.0,3.0,3.0,68.14100000000008
27,2,Three Back Task,P,1182.0,3.0,3.0,70.19000000000005
28,2,Three Back Task,C,1073.0,4.0,3.0,72.25649999999996
29,2,Three Back Task,N,414.0,3.0,4.0,74.34050000000002
30,2,Three Back Task,P,913.0,4.0,3.0,76.40600000000018
31,2,Three Back Task,C,677.0,4.0,4.0,78.47250000000008
32,2,Three Back Task,N,691.0,4.0,3.0,80.53850000000011
33,2,Three Back Task,V,565.0,3.0,3.0,82.57150000000001
34,2,Three Back Task,Q,762.0,3.0,3.0,84.60450000000014
35,2,Three Back Task,M,499.0,3.0,3.0,86.63750000000005
36,2,Three Back Task,H,271.0,3.0,3.0,88.67050000000017
37,2,Three Back Task,Q,969.0,4.0,4.0,90.721
38,2,Three Back Task,X,410.0,3.0,3.0,92.77050000000008
39,2,Three Back Task,N,957.0,3.0,4.0,94.82000000000016
40,2,Three Back Task,Z,266.0,3.0,3.0,96.88650000000007
41,2,Three Back Task,F,867.0,3.0,3.0,98.93600000000015
42,2,Three Back Task,C,523.0,3.0,4.0,101.00300000000016
43,2,Three Back Task,H,1167.0,3.0,4.0,103.05250000000001
44,3,Three Back Task,D,0.0,3.0,,120.13400000000001
45,3,Three Back Task,X,0.0,3.0,,122.2505000000001
46,3,Three Back Task,M,0.0,3.0,,124.31650000000013
47,3,Three Back Task,I,219.0,3.0,3.0,126.43299999999999
48,3,Three Back Task,X,14.0,3.0,4.0,128.51650000000018
49,3,Three Back Task,M,827.0,4.0,4.0,130.60000000000014
50,3,Three Back Task,P,295.0,3.0,3.0,132.69950000000017
51,3,Three Back Task,S,272.0,3.0,4.0,134.78250000000003
52,3,Three Back Task,A,291.0,3.0,3.0,136.8655000000001
53,3,Three Back Task,N,970.0,3.0,4.0,138.94849999999997
54,3,Three Back Task,W,290.0,3.0,3.0,141.0150000000001
55,3,Three Back Task,V,350.0,3.0,3.0,143.08100000000013
56,3,Three Back Task,A,281.0,3.0,4.0,145.13049999999998
57,3,Three Back Task,W,446.0,4.0,4.0,147.18000000000006
58,3,Three Back Task,B,177.0,3.0,3.0,149.23000000000002
59,3,Three Back Task,A,536.0,4.0,4.0,151.26300000000015
60,3,Three Back Task,Y,158.0,3.0,3.0,153.3125
61,3,Three Back Task,B,353.0,4.0,4.0,155.346
62,3,Three Back Task,A,0.0,4.0,,157.37900000000013
63,3,Three Back Task,R,254.0,3.0,3.0,159.462
64,3,Three Back Task,P,176.0,3.0,3.0,161.279
65,3,Three Back Task,C,1078.0,3.0,3.0,163.31349999999998
66,4,One Back Task,V,0.0,3.0,,180.37650000000008
67,4,One Back Task,I,1484.0,3.0,3.0,182.52650000000017
68,4,One Back Task,Q,342.0,3.0,3.0,184.625
69,4,One Back Task,H,592.0,3.0,3.0,186.6590000000001
70,4,One Back Task,C,305.0,3.0,3.0,188.70849999999996
71,4,One Back Task,N,963.0,3.0,3.0,190.75800000000004
72,4,One Back Task,V,389.0,3.0,3.0,192.79150000000004
73,4,One Back Task,Y,293.0,3.0,3.0,194.84050000000002
74,4,One Back Task,Y,426.0,4.0,3.0,196.87450000000013
75,4,One Back Task,K,281.0,3.0,3.0,198.89049999999997
76,4,One Back Task,K,58.0,4.0,4.0,200.9235000000001
77,4,One Back Task,I,234.0,3.0,3.0,202.95600000000013
78,4,One Back Task,I,372.0,4.0,4.0,204.98950000000013
79,4,One Back Task,O,89.0,3.0,3.0,206.97250000000008
80,4,One Back Task,E,434.0,3.0,3.0,209.00549999999998
81,4,One Back Task,D,471.0,3.0,3.0,211.0385000000001
82,4,One Back Task,V,101.0,3.0,3.0,213.10550000000012
83,4,One Back Task,V,95.0,4.0,4.0,215.13850000000002
84,4,One Back Task,N,98.0,3.0,3.0,217.17100000000005
85,4,One Back Task,N,273.0,4.0,4.0,219.20450000000005
86,4,One Back Task,D,124.0,3.0,3.0,221.23750000000018
87,4,One Back Task,W,431.0,3.0,3.0,223.288
88,5,Three Back Task,C,0.0,3.0,,240.30100000000016
89,5,Three Back Task,B,0.0,3.0,,242.36800000000017
90,5,Three Back Task,Q,0.0,3.0,,244.45100000000002
91,5,Three Back Task,Y,754.0,3.0,4.0,246.55100000000016
92,5,Three Back Task,R,871.0,3.0,3.0,248.58349999999996
93,5,Three Back Task,I,379.0,3.0,3.0,250.63350000000014
94,5,Three Back Task,Y,919.0,4.0,4.0,252.66600000000017
95,5,Three Back Task,N,0.0,3.0,,254.69950000000017
96,5,Three Back Task,Y,193.0,3.0,4.0,256.7825
97,5,Three Back Task,X,748.0,3.0,3.0,258.56600000000003
98,5,Three Back Task,F,1110.0,3.0,4.0,260.6165000000001
99,5,Three Back Task,U,486.0,3.0,4.0,262.66550000000007
100,5,Three Back Task,H,795.0,4.0,4.0,264.69849999999997
101,5,Three Back Task,U,710.0,3.0,3.0,266.7315000000001
102,5,Three Back Task,U,262.0,3.0,4.0,268.7640000000001
103,5,Three Back Task,H,345.0,4.0,3.0,270.798
104,5,Three Back Task,W,426.0,3.0,3.0,272.83100000000013
105,5,Three Back Task,U,270.0,4.0,4.0,274.86350000000016
106,5,Three Back Task,H,480.0,4.0,4.0,276.89750000000004
107,5,Three Back Task,F,359.0,3.0,4.0,278.93000000000006
108,5,Three Back Task,I,204.0,3.0,3.0,280.98
109,5,Three Back Task,V,824.0,3.0,4.0,283.0305000000001
110,6,One Back Task,U,0.0,3.0,,300.077
111,6,One Back Task,R,624.0,3.0,4.0,302.16049999999996
112,6,One Back Task,O,388.0,3.0,4.0,304.193
113,6,One Back Task,P,29.0,3.0,3.0,306.24250000000006
114,6,One Back Task,P,633.0,4.0,4.0,307.92600000000016
115,6,One Back Task,P,206.0,4.0,4.0,309.99300000000017
116,6,One Back Task,U,304.0,3.0,3.0,312.0585000000001
117,6,One Back Task,Z,0.0,3.0,,314.125
118,6,One Back Task,U,482.0,3.0,3.0,316.25850000000014
119,6,One Back Task,M,378.0,3.0,3.0,318.32400000000007
120,6,One Back Task,M,476.0,4.0,4.0,320.3745000000001
121,6,One Back Task,W,232.0,3.0,3.0,322.491
122,6,One Back Task,I,241.0,3.0,3.0,324.558
123,6,One Back Task,F,0.0,3.0,,326.6410000000001
124,6,One Back Task,M,0.0,3.0,,328.8410000000001
125,6,One Back Task,A,0.0,3.0,,331.04100000000017
126,6,One Back Task,G,453.0,3.0,3.0,333.24
127,6,One Back Task,G,81.0,4.0,4.0,335.3900000000001
128,6,One Back Task,R,361.0,3.0,3.0,337.48950000000013
129,6,One Back Task,Q,168.0,3.0,3.0,339.58900000000017
130,6,One Back Task,R,470.0,4.0,3.0,341.6725000000001
131,6,One Back Task,Q,0.0,3.0,,343.855
132,7,One Back Task,S,0.0,3.0,,361.00250000000005
133,7,One Back Task,R,753.0,3.0,3.0,363.08500000000004
134,7,One Back Task,V,17.0,3.0,3.0,365.15200000000004
135,7,One Back Task,V,465.0,4.0,4.0,367.2180000000001
136,7,One Back Task,O,156.0,3.0,3.0,369.30200000000013
137,7,One Back Task,A,200.0,3.0,3.0,371.33450000000016
138,7,One Back Task,C,372.0,3.0,3.0,373.384
139,7,One Back Task,N,465.0,3.0,3.0,375.384
140,7,One Back Task,Y,448.0,3.0,3.0,377.5345
141,7,One Back Task,V,402.0,3.0,3.0,379.6165000000001
142,7,One Back Task,V,161.0,4.0,4.0,381.616
143,7,One Back Task,J,185.0,3.0,3.0,383.6500000000001
144,7,One Back Task,U,33.0,3.0,3.0,385.69900000000007
145,7,One Back Task,U,17.0,4.0,4.0,387.7325000000001
146,7,One Back Task,U,31.0,4.0,4.0,389.78200000000015
147,7,One Back Task,Y,465.0,3.0,3.0,391.84900000000016
148,7,One Back Task,Y,452.0,4.0,4.0,393.93100000000004
149,7,One Back Task,J,251.0,3.0,3.0,396.0310000000002
150,7,One Back Task,I,154.0,3.0,3.0,398.09850000000006
151,7,One Back Task,S,240.0,3.0,3.0,400.19849999999997
152,7,One Back Task,U,447.0,3.0,3.0,402.2475000000002
153,7,One Back Task,P,428.0,3.0,3.0,404.297
154,8,Three Back Task,L,0.0,3.0,,421.328
155,8,Three Back Task,A,0.0,3.0,,423.4275
156,8,Three Back Task,P,0.0,3.0,,425.5105000000001
157,8,Three Back Task,L,303.0,4.0,4.0,427.5935000000002
158,8,Three Back Task,A,213.0,4.0,4.0,429.6270000000002
159,8,Three Back Task,N,151.0,3.0,3.0,431.67650000000003
160,8,Three Back Task,W,431.0,3.0,3.0,433.70950000000016
161,8,Three Back Task,C,211.0,3.0,3.0,435.74250000000006
162,8,Three Back Task,L,472.0,3.0,4.0,437.77600000000007
163,8,Three Back Task,W,955.0,4.0,4.0,439.8430000000001
164,8,Three Back Task,U,202.0,3.0,3.0,441.90800000000013
165,8,Three Back Task,S,432.0,3.0,3.0,443.9760000000001
166,8,Three Back Task,W,317.0,4.0,4.0,446.0250000000001
167,8,Three Back Task,Y,602.0,3.0,4.0,448.0585000000001
168,8,Three Back Task,F,295.0,3.0,3.0,450.0905
169,8,Three Back Task,L,376.0,3.0,4.0,452.1245000000001
170,8,Three Back Task,Y,381.0,4.0,4.0,454.174
171,8,Three Back Task,U,353.0,3.0,3.0,456.22350000000006
172,8,Three Back Task,L,236.0,3.0,4.0,458.25700000000006
173,8,Three Back Task,I,345.0,3.0,3.0,460.2895000000001
174,8,Three Back Task,B,685.0,3.0,3.0,462.3225
175,8,Three Back Task,T,364.0,3.0,3.0,464.374
176,10,Three Back Task,E,0.0,3.0,,496.4850000000001
177,10,Three Back Task,G,0.0,3.0,,498.5675000000001
178,10,Three Back Task,S,0.0,3.0,,500.634
179,10,Three Back Task,J,2.0,3.0,3.0,502.7175
180,10,Three Back Task,Z,109.0,3.0,3.0,504.75
181,10,Three Back Task,Q,118.0,3.0,3.0,506.7835
182,10,Three Back Task,W,165.0,3.0,3.0,508.81650000000013
183,10,Three Back Task,K,674.0,3.0,3.0,510.84950000000003
184,10,Three Back Task,Q,1200.0,3.0,4.0,512.8825000000002
185,10,Three Back Task,S,458.0,3.0,3.0,514.9155000000001
186,10,Three Back Task,M,389.0,3.0,3.0,516.9655
187,10,Three Back Task,Q,1190.0,3.0,4.0,518.998
188,10,Three Back Task,S,1232.0,4.0,4.0,521.0310000000002
189,10,Three Back Task,F,984.0,4.0,3.0,523.0645000000002
190,10,Three Back Task,Q,342.0,4.0,4.0,525.115
191,10,Three Back Task,X,255.0,3.0,3.0,527.1815000000001
192,10,Three Back Task,F,702.0,4.0,4.0,529.2485000000001
193,10,Three Back Task,K,0.0,3.0,,531.315
194,10,Three Back Task,X,608.0,3.0,4.0,533.4640000000002
195,10,Three Back Task,K,372.0,3.0,3.0,535.5305000000001
196,10,Three Back Task,R,452.0,3.0,3.0,537.597
197,10,Three Back Task,X,557.0,4.0,4.0,539.6465000000001
198,11,One Back Task,B,0.0,3.0,,556.694
199,11,One Back Task,B,29.0,4.0,4.0,558.8770000000002
200,11,One Back Task,V,34.0,3.0,3.0,560.9265
201,11,One Back Task,P,431.0,3.0,3.0,562.9590000000001
202,11,One Back Task,P,471.0,4.0,4.0,565.0260000000001
203,11,One Back Task,Q,367.0,3.0,3.0,567.1255000000001
204,11,One Back Task,E,112.0,3.0,4.0,569.1255000000001
205,11,One Back Task,E,408.0,4.0,4.0,571.1915000000001
206,11,One Back Task,M,417.0,3.0,3.0,573.2250000000001
207,11,One Back Task,M,438.0,4.0,4.0,575.2745
208,11,One Back Task,M,6.0,4.0,4.0,577.3405
209,11,One Back Task,T,242.0,3.0,3.0,579.4080000000001
210,11,One Back Task,E,472.0,3.0,3.0,581.4735000000001
211,11,One Back Task,R,453.0,3.0,3.0,583.5735
212,11,One Back Task,X,23.0,3.0,3.0,585.6565
213,11,One Back Task,E,110.0,3.0,3.0,587.723
214,11,One Back Task,L,107.0,3.0,3.0,589.789
215,11,One Back Task,B,134.0,3.0,3.0,591.8390000000002
216,11,One Back Task,R,308.0,3.0,3.0,593.905
217,11,One Back Task,W,425.0,3.0,3.0,595.972
218,11,One Back Task,W,362.0,4.0,4.0,598.0550000000001
219,11,One Back Task,I,304.0,3.0,3.0,600.0550000000001
220,12,One Back Task,I,0.0,3.0,,617.153
221,12,One Back Task,T,0.0,3.0,,619.3195000000001
222,12,One Back Task,H,62.0,3.0,3.0,621.4345000000001
223,12,One Back Task,H,459.0,4.0,4.0,623.4845
224,12,One Back Task,Y,37.0,3.0,3.0,625.5840000000001
225,12,One Back Task,G,443.0,3.0,3.0,627.6510000000001
226,12,One Back Task,G,76.0,4.0,4.0,629.7345
227,12,One Back Task,G,4.0,4.0,4.0,631.8000000000002
228,12,One Back Task,Y,21.0,3.0,3.0,633.8675000000001
229,12,One Back Task,W,57.0,3.0,3.0,635.9170000000001
230,12,One Back Task,W,402.0,4.0,4.0,638.0005000000001
231,12,One Back Task,U,191.0,3.0,3.0,640.049
232,12,One Back Task,A,454.0,3.0,3.0,642.0995
233,12,One Back Task,U,404.0,3.0,3.0,644.1655000000001
234,12,One Back Task,R,488.0,3.0,3.0,646.1990000000001
235,12,One Back Task,W,372.0,3.0,3.0,648.315
236,12,One Back Task,P,166.0,3.0,3.0,650.298
237,12,One Back Task,Q,368.0,3.0,3.0,652.3645000000001
238,12,One Back Task,C,471.0,3.0,3.0,654.3980000000001
239,12,One Back Task,A,146.0,3.0,3.0,656.5145
240,12,One Back Task,A,444.0,4.0,4.0,658.5800000000002
241,12,One Back Task,L,171.0,3.0,3.0,660.6465000000001
242,13,Three Back Task,A,0.0,3.0,,677.711
243,13,Three Back Task,H,0.0,3.0,,679.827
244,13,Three Back Task,U,0.0,3.0,,681.9605000000001
245,13,Three Back Task,J,265.0,3.0,3.0,684.077
246,13,Three Back Task,V,342.0,3.0,3.0,686.1265000000001
247,13,Three Back Task,N,209.0,3.0,3.0,688.1760000000002
248,13,Three Back Task,J,428.0,3.0,4.0,690.2435
249,13,Three Back Task,V,486.0,4.0,4.0,692.3100000000002
250,13,Three Back Task,N,578.0,4.0,4.0,694.3590000000002
251,13,Three Back Task,U,567.0,3.0,3.0,696.4265
252,13,Three Back Task,V,988.0,4.0,4.0,698.4925000000001
253,13,Three Back Task,E,615.0,3.0,4.0,700.5595000000001
254,13,Three Back Task,D,224.0,3.0,3.0,702.642
255,13,Three Back Task,X,330.0,3.0,3.0,704.7250000000001
256,13,Three Back Task,Q,294.0,3.0,4.0,706.7415000000001
257,13,Three Back Task,O,304.0,3.0,3.0,708.8075000000001
258,13,Three Back Task,X,797.0,4.0,4.0,710.8755000000001
259,13,Three Back Task,N,179.0,3.0,4.0,712.9405000000002
260,13,Three Back Task,O,549.0,4.0,3.0,715.0065
261,13,Three Back Task,P,444.0,3.0,3.0,717.0900000000001
262,13,Three Back Task,T,291.0,3.0,3.0,719.1570000000002
263,13,Three Back Task,W,242.0,3.0,3.0,721.2225000000001
264,14,Three Back Task,X,0.0,3.0,,738.2865000000002
265,14,Three Back Task,K,0.0,3.0,,740.4195
266,14,Three Back Task,O,0.0,3.0,,742.5025
267,14,Three Back Task,X,457.0,4.0,4.0,744.586
268,14,Three Back Task,K,306.0,4.0,4.0,746.6190000000001
269,14,Three Back Task,J,311.0,3.0,3.0,748.6685
270,14,Three Back Task,M,233.0,3.0,3.0,750.7015000000001
271,14,Three Back Task,G,249.0,3.0,3.0,752.7345
272,14,Three Back Task,Y,86.0,3.0,3.0,754.7675000000002
273,14,Three Back Task,M,984.0,3.0,4.0,756.818
274,14,Three Back Task,K,708.0,3.0,4.0,758.885
275,14,Three Back Task,E,354.0,3.0,3.0,760.9175
276,14,Three Back Task,S,65.0,3.0,3.0,762.9505000000001
277,14,Three Back Task,K,500.0,4.0,3.0,764.9830000000002
278,14,Three Back Task,E,0.0,4.0,,767.0160000000001
279,14,Three Back Task,F,454.0,3.0,4.0,769.0985000000001
280,14,Three Back Task,P,579.0,3.0,3.0,771.1320000000001
281,14,Three Back Task,J,373.0,3.0,3.0,773.165
282,14,Three Back Task,F,279.0,4.0,4.0,775.2150000000001
283,14,Three Back Task,N,5.0,3.0,3.0,777.248
284,14,Three Back Task,L,169.0,3.0,3.0,779.2810000000002
285,14,Three Back Task,T,376.0,3.0,3.0,781.3140000000001
286,15,One Back Task,V,0.0,3.0,,798.396
287,15,One Back Task,J,0.0,3.0,,800.4950000000001
288,15,One Back Task,U,414.0,3.0,3.0,802.596
289,15,One Back Task,J,748.0,3.0,3.0,804.5610000000001
290,15,One Back Task,J,190.0,4.0,4.0,806.594
291,15,One Back Task,J,202.0,4.0,4.0,808.6275
292,15,One Back Task,K,494.0,3.0,3.0,810.6600000000001
293,15,One Back Task,K,34.0,3.0,4.0,812.7605000000001
294,15,One Back Task,F,461.0,3.0,3.0,814.7935
295,15,One Back Task,F,380.0,4.0,4.0,816.8765000000001
296,15,One Back Task,M,447.0,3.0,3.0,818.8765000000001
297,15,One Back Task,B,0.0,3.0,,820.9260000000002
298,15,One Back Task,O,420.0,3.0,3.0,823.0260000000001
299,15,One Back Task,B,168.0,3.0,3.0,825.058
300,15,One Back Task,W,494.0,3.0,3.0,827.1255000000001
301,15,One Back Task,Z,318.0,3.0,3.0,829.2240000000002
302,15,One Back Task,Z,198.0,4.0,3.0,831.124
303,15,One Back Task,Y,307.0,3.0,3.0,832.8735000000001
304,15,One Back Task,Z,622.0,3.0,3.0,834.9070000000002
305,15,One Back Task,E,463.0,3.0,3.0,836.94
306,15,One Back Task,A,366.0,3.0,3.0,838.973
307,15,One Back Task,A,225.0,4.0,4.0,840.9225000000001
308,16,Three Back Task,J,0.0,3.0,,857.9705000000001
309,16,Three Back Task,O,0.0,3.0,,860.037
310,16,Three Back Task,X,0.0,3.0,,862.1035000000002
311,16,Three Back Task,V,110.0,3.0,3.0,864.1695
312,16,Three Back Task,X,26.0,3.0,4.0,866.2025000000001
313,16,Three Back Task,Y,227.0,3.0,4.0,868.2355
314,16,Three Back Task,G,369.0,3.0,3.0,870.2685000000001
315,16,Three Back Task,A,287.0,3.0,4.0,872.2185000000002
316,16,Three Back Task,C,697.0,3.0,3.0,874.085
317,16,Three Back Task,G,874.0,4.0,3.0,876.1180000000002
318,16,Three Back Task,O,1111.0,4.0,3.0,878.1510000000001
319,16,Three Back Task,L,539.0,3.0,3.0,880.184
320,16,Three Back Task,H,542.0,3.0,3.0,882.2170000000001
321,16,Three Back Task,O,458.0,4.0,3.0,884.2505000000001
322,16,Three Back Task,Y,1205.0,3.0,3.0,886.2665000000002
323,16,Three Back Task,H,562.0,4.0,3.0,888.3000000000002
324,16,Three Back Task,I,275.0,3.0,4.0,890.3330000000001
325,16,Three Back Task,N,279.0,3.0,3.0,892.366
326,16,Three Back Task,I,203.0,3.0,4.0,894.3989999999999
327,16,Three Back Task,D,408.0,3.0,4.0,896.4320000000002
328,16,Three Back Task,N,195.0,4.0,4.0,898.4650000000001
329,16,Three Back Task,W,370.0,3.0,3.0,900.2314999999999
330,17,One Back Task,I,0.0,3.0,,917.2795000000001
331,17,One Back Task,T,100.0,3.0,3.0,919.346
332,17,One Back Task,H,0.0,3.0,,921.3789999999999
333,17,One Back Task,H,36.0,4.0,4.0,923.4450000000002
334,17,One Back Task,Y,403.0,3.0,3.0,925.4785000000002
335,17,One Back Task,G,226.0,3.0,3.0,927.5115000000001
336,17,One Back Task,G,401.0,4.0,4.0,929.5445
337,17,One Back Task,G,478.0,4.0,4.0,931.511
338,17,One Back Task,Y,457.0,3.0,3.0,933.5770000000002
339,17,One Back Task,W,428.0,3.0,3.0,935.6105000000002
340,17,One Back Task,W,32.0,4.0,4.0,937.6100000000001
341,17,One Back Task,U,23.0,3.0,3.0,939.643
342,17,One Back Task,A,236.0,3.0,3.0,941.6759999999999
343,17,One Back Task,U,404.0,3.0,3.0,943.7094999999999
344,17,One Back Task,R,446.0,3.0,3.0,945.7425000000003
345,17,One Back Task,W,475.0,3.0,3.0,947.7755000000002
346,17,One Back Task,P,370.0,3.0,3.0,949.8085000000001
347,17,One Back Task,Q,432.0,3.0,3.0,951.7415000000001
348,17,One Back Task,C,414.0,3.0,3.0,953.7580000000003
349,17,One Back Task,A,384.0,3.0,3.0,955.7575000000002
350,17,One Back Task,A,377.0,4.0,4.0,957.7240000000002
351,17,One Back Task,L,459.0,3.0,3.0,959.6570000000002
352,1,One Back Task,L,0.0,3.0,,1101.739
353,1,One Back Task,Q,750.0,3.0,3.0,1103.7885
354,1,One Back Task,U,431.0,3.0,3.0,1105.8215
355,1,One Back Task,O,416.0,3.0,3.0,1107.8215
356,1,One Back Task,U,356.0,3.0,3.0,1109.8045000000002
357,1,One Back Task,U,447.0,4.0,4.0,1111.721
358,1,One Back Task,H,471.0,3.0,3.0,1113.737
359,1,One Back Task,V,356.0,3.0,3.0,1115.7705
360,1,One Back Task,K,69.0,3.0,3.0,1117.6865000000003
361,1,One Back Task,K,491.0,4.0,4.0,1119.7195000000002
362,1,One Back Task,K,460.0,4.0,4.0,1121.7694999999999
363,1,One Back Task,B,30.0,3.0,3.0,1123.786
364,1,One Back Task,R,447.0,3.0,3.0,1125.819
365,1,One Back Task,F,314.0,4.0,3.0,1127.8355000000001
366,1,One Back Task,F,387.0,4.0,4.0,1129.7185
367,1,One Back Task,C,97.0,3.0,3.0,1131.6685000000002
368,1,One Back Task,G,430.0,3.0,3.0,1133.7015000000001
369,1,One Back Task,X,105.0,3.0,3.0,1135.701
370,1,One Back Task,F,253.0,3.0,3.0,1137.734
371,1,One Back Task,M,381.0,3.0,3.0,1139.5505000000003
372,1,One Back Task,X,72.0,3.0,3.0,1141.5005
373,1,One Back Task,F,404.0,3.0,3.0,1143.5335
374,2,Three Back Task,Z,0.0,3.0,,1160.5145000000002
375,2,Three Back Task,U,0.0,3.0,,1162.5639999999999
376,2,Three Back Task,F,0.0,3.0,,1164.614
377,2,Three Back Task,Z,498.0,3.0,4.0,1166.6635
378,2,Three Back Task,B,273.0,3.0,3.0,1168.7135000000003
379,2,Three Back Task,L,1225.0,3.0,3.0,1170.7465000000002
380,2,Three Back Task,K,393.0,3.0,3.0,1172.7795
381,2,Three Back Task,C,167.0,3.0,3.0,1174.8125
382,2,Three Back Task,L,423.0,3.0,4.0,1176.8455
383,2,Three Back Task,J,444.0,3.0,3.0,1178.879
384,2,Three Back Task,G,22.0,3.0,3.0,1180.9120000000003
385,2,Three Back Task,F,277.0,3.0,3.0,1182.9450000000002
386,2,Three Back Task,J,397.0,4.0,3.0,1184.978
387,2,Three Back Task,G,199.0,4.0,4.0,1187.011
388,2,Three Back Task,H,799.0,3.0,4.0,1189.0439999999999
389,2,Three Back Task,E,264.0,3.0,3.0,1191.0774999999999
390,2,Three Back Task,W,1250.0,3.0,3.0,1193.1105000000002
391,2,Three Back Task,N,0.0,3.0,,1195.1435000000001
392,2,Three Back Task,X,277.0,3.0,4.0,1197.2095
393,2,Three Back Task,W,202.0,4.0,3.0,1199.243
394,2,Three Back Task,N,473.0,4.0,4.0,1201.2760000000003
395,2,Three Back Task,X,343.0,4.0,4.0,1203.3090000000002
396,3,One Back Task,Y,0.0,3.0,,1220.357
397,3,One Back Task,E,161.0,3.0,3.0,1222.4234999999999
398,3,One Back Task,A,143.0,3.0,3.0,1224.4565000000002
399,3,One Back Task,A,387.0,4.0,4.0,1226.4895000000001
400,3,One Back Task,V,39.0,4.0,3.0,1228.4560000000001
401,3,One Back Task,X,394.0,4.0,3.0,1230.489
402,3,One Back Task,X,370.0,4.0,4.0,1232.4555
403,3,One Back Task,S,0.0,3.0,,1234.4050000000002
404,3,One Back Task,G,109.0,3.0,3.0,1236.4715
405,3,One Back Task,P,420.0,3.0,3.0,1238.5045
406,3,One Back Task,Y,379.0,3.0,3.0,1240.504
407,3,One Back Task,X,4.0,3.0,3.0,1242.4705
408,3,One Back Task,P,430.0,3.0,3.0,1244.504
409,3,One Back Task,U,380.0,3.0,3.0,1246.52
410,3,One Back Task,V,458.0,3.0,3.0,1248.4865
411,3,One Back Task,A,378.0,3.0,3.0,1250.5194999999999
412,3,One Back Task,A,498.0,4.0,4.0,1252.4859999999999
413,3,One Back Task,G,377.0,3.0,3.0,1254.5525000000002
414,3,One Back Task,L,471.0,3.0,3.0,1256.5190000000002
415,3,One Back Task,W,666.0,3.0,3.0,1258.5520000000001
416,3,One Back Task,B,26.0,3.0,3.0,1260.585
417,3,One Back Task,I,87.0,3.0,3.0,1262.618
418,4,Three Back Task,F,0.0,3.0,,1279.6660000000002
419,4,Three Back Task,O,0.0,3.0,,1281.732
420,4,Three Back Task,H,0.0,3.0,,1283.7984999999999
421,4,Three Back Task,W,0.0,3.0,,1285.8650000000002
422,4,Three Back Task,O,30.0,4.0,4.0,1287.9315000000001
423,4,Three Back Task,M,157.0,3.0,3.0,1289.9645
424,4,Three Back Task,L,340.0,3.0,4.0,1291.9975
425,4,Three Back Task,L,502.0,3.0,3.0,1294.031
426,4,Three Back Task,R,171.0,3.0,3.0,1296.0639999999999
427,4,Three Back Task,E,90.0,3.0,3.0,1298.0970000000002
428,4,Three Back Task,L,429.0,4.0,4.0,1300.13
429,4,Three Back Task,N,357.0,3.0,3.0,1302.1295
430,4,Three Back Task,J,201.0,3.0,3.0,1304.1460000000002
431,4,Three Back Task,M,132.0,3.0,4.0,1306.179
432,4,Three Back Task,Y,77.0,3.0,3.0,1308.212
433,4,Three Back Task,U,681.0,3.0,3.0,1310.2455
434,4,Three Back Task,S,125.0,3.0,3.0,1312.2785
435,4,Three Back Task,Y,202.0,4.0,4.0,1314.3115000000003
436,4,Three Back Task,M,83.0,3.0,3.0,1316.328
437,4,Three Back Task,S,228.0,4.0,4.0,1318.344
438,4,Three Back Task,Y,180.0,4.0,4.0,1320.3775
439,4,Three Back Task,N,94.0,3.0,4.0,1322.377
440,5,One Back Task,A,0.0,3.0,,1339.375
441,5,One Back Task,A,445.0,4.0,4.0,1341.408
442,5,One Back Task,D,394.0,3.0,3.0,1343.4245
443,5,One Back Task,M,305.0,3.0,3.0,1345.424
444,5,One Back Task,X,440.0,3.0,3.0,1347.324
445,5,One Back Task,H,359.0,3.0,3.0,1349.357
446,5,One Back Task,U,0.0,3.0,,1351.3065000000001
447,5,One Back Task,G,344.0,3.0,3.0,1353.4065
448,5,One Back Task,G,451.0,4.0,4.0,1355.3395
449,5,One Back Task,G,436.0,4.0,4.0,1357.3895000000002
450,5,One Back Task,C,145.0,3.0,3.0,1359.4054999999998
451,5,One Back Task,W,296.0,3.0,3.0,1361.4385000000002
452,5,One Back Task,Y,348.0,3.0,3.0,1363.3220000000001
453,5,One Back Task,Y,0.0,4.0,,1365.255
454,5,One Back Task,N,146.0,3.0,3.0,1367.3215
455,5,One Back Task,N,411.0,4.0,3.0,1369.3545
456,5,One Back Task,X,68.0,3.0,3.0,1371.3205000000003
457,5,One Back Task,M,387.0,3.0,3.0,1373.3535000000002
458,5,One Back Task,X,462.0,3.0,3.0,1375.3205000000003
459,5,One Back Task,A,364.0,3.0,3.0,1377.37
460,5,One Back Task,D,333.0,3.0,3.0,1379.3195
461,5,One Back Task,'T',0.0,3.0,,1381.3029999999999
462,6,Three Back Task,V,0.0,3.0,,1398.402
463,6,Three Back Task,D,0.0,3.0,,1400.601
464,6,Three Back Task,K,0.0,3.0,,1402.8165
465,6,Three Back Task,D,172.0,3.0,3.0,1404.9500000000003
466,6,Three Back Task,Z,238.0,3.0,3.0,1407.0505000000003
467,6,Three Back Task,J,476.0,3.0,3.0,1409.149
468,6,Three Back Task,G,606.0,3.0,3.0,1411.2490000000003
469,6,Three Back Task,Z,231.0,4.0,4.0,1413.3160000000003
470,6,Three Back Task,J,215.0,4.0,4.0,1415.382
471,6,Three Back Task,Q,235.0,3.0,3.0,1417.4650000000001
472,6,Three Back Task,B,88.0,3.0,3.0,1419.5480000000002
473,6,Three Back Task,Z,290.0,3.0,4.0,1421.6309999999999
474,6,Three Back Task,Q,405.0,4.0,4.0,1423.6975000000002
475,6,Three Back Task,B,113.0,4.0,4.0,1425.7815
476,6,Three Back Task,B,194.0,3.0,3.0,1427.8809999999999
477,6,Three Back Task,E,1327.0,3.0,4.0,1429.9465
478,6,Three Back Task,G,0.0,3.0,,1432.0135
479,6,Three Back Task,B,46.0,4.0,4.0,1434.1460000000002
480,6,Three Back Task,X,82.0,3.0,3.0,1436.23
481,6,Three Back Task,U,101.0,3.0,3.0,1438.3135000000002
482,6,Three Back Task,J,858.0,3.0,4.0,1440.395
483,6,Three Back Task,V,304.0,3.0,3.0,1442.4615
484,7,One Back Task,A,0.0,3.0,,1459.5430000000001
485,7,One Back Task,W,165.0,3.0,3.0,1461.6435000000001
486,7,One Back Task,X,438.0,3.0,3.0,1463.71
487,7,One Back Task,M,0.0,3.0,,1465.8250000000003
488,7,One Back Task,F,0.0,3.0,,1468.0590000000002
489,7,One Back Task,S,364.0,3.0,3.0,1470.226
490,7,One Back Task,E,462.0,3.0,3.0,1472.2745
491,7,One Back Task,E,367.0,4.0,4.0,1474.391
492,7,One Back Task,U,240.0,3.0,3.0,1476.4250000000002
493,7,One Back Task,Y,0.0,3.0,,1478.4900000000002
494,7,One Back Task,Y,474.0,4.0,4.0,1480.6245
495,7,One Back Task,Y,23.0,4.0,4.0,1482.8075
496,7,One Back Task,V,249.0,3.0,3.0,1484.8745
497,7,One Back Task,A,454.0,3.0,3.0,1486.94
498,7,One Back Task,A,0.0,4.0,,1489.04
499,7,One Back Task,G,110.0,3.0,3.0,1491.1885000000002
500,7,One Back Task,S,5.0,3.0,3.0,1493.2385
501,7,One Back Task,F,406.0,3.0,3.0,1495.3215
502,7,One Back Task,I,487.0,3.0,3.0,1497.371
503,7,One Back Task,B,0.0,3.0,,1499.522
504,7,One Back Task,B,431.0,4.0,4.0,1501.6705000000002
505,7,One Back Task,T,256.0,3.0,3.0,1503.757
506,8,Three Back Task,T,0.0,3.0,,1520.8365
507,8,Three Back Task,R,0.0,3.0,,1522.9520000000002
508,8,Three Back Task,A,0.0,3.0,,1525.0684999999999
509,8,Three Back Task,M,39.0,3.0,3.0,1527.201
510,8,Three Back Task,Z,418.0,3.0,3.0,1529.2849999999999
511,8,Three Back Task,C,333.0,3.0,3.0,1531.3519999999999
512,8,Three Back Task,M,508.0,3.0,4.0,1533.4
513,8,Three Back Task,O,169.0,3.0,3.0,1535.451
514,8,Three Back Task,P,626.0,3.0,3.0,1537.5165000000002
515,8,Three Back Task,M,209.0,4.0,4.0,1539.5660000000003
516,8,Three Back Task,O,138.0,4.0,4.0,1541.5990000000002
517,8,Three Back Task,O,265.0,3.0,3.0,1543.6485000000002
518,8,Three Back Task,B,121.0,3.0,3.0,1545.6995000000002
519,8,Three Back Task,H,727.0,3.0,3.0,1547.7490000000003
520,8,Three Back Task,Z,479.0,4.0,3.0,1549.7984999999999
521,8,Three Back Task,Q,235.0,3.0,3.0,1551.8474999999999
522,8,Three Back Task,Y,909.0,3.0,3.0,1553.8980000000001
523,8,Three Back Task,Z,425.0,4.0,4.0,1555.9645
524,8,Three Back Task,M,497.0,3.0,3.0,1558.0315
525,8,Three Back Task,R,439.0,3.0,3.0,1560.1640000000002
526,8,Three Back Task,P,0.0,3.0,,1562.246
527,8,Three Back Task,M,238.0,4.0,3.0,1564.3795
528,10,One Back Task,J,0.0,3.0,,1596.5260000000003
529,10,One Back Task,J,464.0,4.0,4.0,1598.6585
530,10,One Back Task,N,60.0,3.0,3.0,1600.7925
531,10,One Back Task,S,396.0,3.0,3.0,1602.8575
532,10,One Back Task,N,449.0,3.0,3.0,1604.942
533,10,One Back Task,N,424.0,4.0,4.0,1607.1245
534,10,One Back Task,R,405.0,3.0,3.0,1609.225
535,10,One Back Task,R,486.0,4.0,4.0,1611.3255
536,10,One Back Task,I,384.0,3.0,3.0,1613.4900000000002
537,10,One Back Task,V,353.0,3.0,3.0,1615.5735
538,10,One Back Task,R,64.0,3.0,3.0,1617.6055000000001
539,10,One Back Task,P,0.0,3.0,,1619.6895
540,10,One Back Task,A,385.0,3.0,3.0,1621.8225000000002
541,10,One Back Task,C,395.0,3.0,3.0,1623.873
542,10,One Back Task,V,346.0,4.0,3.0,1626.0055000000002
543,10,One Back Task,V,483.0,4.0,4.0,1628.0885000000003
544,10,One Back Task,I,0.0,3.0,,1630.2705
545,10,One Back Task,L,0.0,3.0,,1632.455
546,10,One Back Task,U,480.0,3.0,3.0,1634.6215000000002
547,10,One Back Task,D,28.0,3.0,3.0,1636.7195000000002
548,10,One Back Task,P,386.0,3.0,3.0,1638.7530000000002
549,10,One Back Task,Y,427.0,3.0,3.0,1640.719
550,11,Three Back Task,C,0.0,3.0,,1657.8020000000001
551,11,Three Back Task,B,0.0,3.0,,1659.9500000000003
552,11,Three Back Task,Q,0.0,3.0,,1662.1165
553,11,Three Back Task,Z,457.0,3.0,3.0,1664.283
554,11,Three Back Task,J,0.0,3.0,,1666.4165000000003
555,11,Three Back Task,Q,350.0,4.0,4.0,1668.5990000000002
556,11,Three Back Task,B,128.0,3.0,3.0,1670.683
557,11,Three Back Task,F,110.0,3.0,3.0,1672.7665000000002
558,11,Three Back Task,B,1061.0,3.0,3.0,1674.8315000000002
559,11,Three Back Task,M,523.0,3.0,4.0,1676.9315000000001
560,11,Three Back Task,D,404.0,3.0,3.0,1678.9990000000003
561,11,Three Back Task,Z,48.0,3.0,3.0,1681.0655000000002
562,11,Three Back Task,L,392.0,3.0,3.0,1683.147
563,11,Three Back Task,O,918.0,3.0,4.0,1685.2305000000001
564,11,Three Back Task,S,290.0,3.0,3.0,1687.2984999999999
565,11,Three Back Task,A,752.0,3.0,3.0,1689.3635
566,11,Three Back Task,O,126.0,4.0,4.0,1691.431
567,11,Three Back Task,Y,482.0,3.0,3.0,1693.5125000000003
568,11,Three Back Task,A,282.0,4.0,4.0,1695.6795000000002
569,11,Three Back Task,U,503.0,3.0,3.0,1697.7625000000003
570,11,Three Back Task,Y,321.0,4.0,4.0,1699.8455
571,11,Three Back Task,A,489.0,4.0,4.0,1701.9279999999999
572,12,Three Back Task,W,0.0,3.0,,1719.0594999999998
573,12,Three Back Task,Y,0.0,3.0,,1721.2269999999999
574,12,Three Back Task,E,0.0,3.0,,1723.3764999999999
575,12,Three Back Task,S,10.0,3.0,3.0,1725.542
576,12,Three Back Task,Y,251.0,4.0,4.0,1727.625
577,12,Three Back Task,E,32.0,4.0,4.0,1729.6930000000002
578,12,Three Back Task,G,431.0,3.0,3.0,1731.741
579,12,Three Back Task,Q,1144.0,3.0,3.0,1733.8085
580,12,Three Back Task,V,105.0,3.0,3.0,1735.8740000000003
581,12,Three Back Task,W,259.0,3.0,3.0,1737.9575
582,12,Three Back Task,K,1159.0,3.0,3.0,1740.0075000000002
583,12,Three Back Task,D,713.0,3.0,4.0,1742.0729999999999
584,12,Three Back Task,C,479.0,3.0,4.0,1744.1399999999999
585,12,Three Back Task,U,153.0,3.0,3.0,1746.2065000000002
586,12,Three Back Task,V,390.0,3.0,3.0,1748.2555000000002
587,12,Three Back Task,A,317.0,3.0,4.0,1750.3229999999999
588,12,Three Back Task,U,331.0,4.0,4.0,1752.406
589,12,Three Back Task,X,363.0,3.0,3.0,1754.489
590,12,Three Back Task,A,480.0,4.0,3.0,1756.5720000000001
591,12,Three Back Task,U,32.0,3.0,4.0,1758.772
592,12,Three Back Task,X,243.0,4.0,4.0,1760.8380000000002
593,12,Three Back Task,M,206.0,3.0,3.0,1762.8875000000003
594,13,One Back Task,K,0.0,3.0,,1780.0025
595,13,One Back Task,B,76.0,3.0,3.0,1782.1680000000001
596,13,One Back Task,U,480.0,3.0,3.0,1784.219
597,13,One Back Task,Q,302.0,3.0,3.0,1786.4010000000003
598,13,One Back Task,N,295.0,3.0,3.0,1788.368
599,13,One Back Task,O,6.0,3.0,3.0,1790.335
600,13,One Back Task,I,348.0,3.0,3.0,1792.4010000000003
601,13,One Back Task,T,372.0,3.0,3.0,1794.4160000000002
602,13,One Back Task,W,356.0,3.0,3.0,1796.4340000000002
603,13,One Back Task,I,292.0,4.0,3.0,1798.484
604,13,One Back Task,I,53.0,4.0,4.0,1800.4155
605,13,One Back Task,U,475.0,3.0,3.0,1802.4650000000001
606,13,One Back Task,B,385.0,3.0,3.0,1804.5995000000003
607,13,One Back Task,K,403.0,3.0,3.0,1806.6644999999999
608,13,One Back Task,Z,2.0,3.0,3.0,1808.748
609,13,One Back Task,I,332.0,3.0,3.0,1810.7804999999998
610,13,One Back Task,I,433.0,4.0,3.0,1812.7820000000002
611,13,One Back Task,W,236.0,3.0,3.0,1814.7980000000002
612,13,One Back Task,W,21.0,4.0,4.0,1816.8630000000003
613,13,One Back Task,N,494.0,3.0,3.0,1818.8965000000003
614,13,One Back Task,N,82.0,4.0,4.0,1820.9305
615,13,One Back Task,T,40.0,3.0,4.0,1822.9965000000002
616,14,Three Back Task,O,0.0,3.0,,1840.0445
617,14,Three Back Task,E,0.0,3.0,,1842.194
618,14,Three Back Task,X,0.0,3.0,,1844.344
619,14,Three Back Task,M,485.0,3.0,3.0,1846.4935
620,14,Three Back Task,I,177.0,3.0,3.0,1848.6109999999999
621,14,Three Back Task,P,761.0,3.0,3.0,1850.643
622,14,Three Back Task,M,382.0,4.0,4.0,1852.6934999999999
623,14,Three Back Task,U,596.0,3.0,3.0,1854.7425000000003
624,14,Three Back Task,D,367.0,3.0,3.0,1856.792
625,14,Three Back Task,F,221.0,3.0,3.0,1858.8245000000002
626,14,Three Back Task,S,0.0,3.0,,1860.891
627,14,Three Back Task,D,151.0,4.0,4.0,1863.109
628,14,Three Back Task,R,433.0,3.0,3.0,1865.208
629,14,Three Back Task,Q,315.0,3.0,4.0,1867.3250000000003
630,14,Three Back Task,F,51.0,3.0,3.0,1869.4245
631,14,Three Back Task,A,650.0,3.0,4.0,1871.5405
632,14,Three Back Task,X,806.0,3.0,4.0,1873.6405
633,14,Three Back Task,F,36.0,3.0,4.0,1875.7404999999999
634,14,Three Back Task,A,312.0,4.0,4.0,1877.8564999999999
635,14,Three Back Task,X,225.0,4.0,4.0,1879.9395
636,14,Three Back Task,Y,564.0,3.0,4.0,1882.0394999999999
637,14,Three Back Task,A,61.0,4.0,4.0,1884.1390000000001
638,15,One Back Task,F,0.0,3.0,,1901.254
639,15,One Back Task,F,461.0,4.0,4.0,1903.4865
640,15,One Back Task,F,187.0,4.0,4.0,1905.6695
641,15,One Back Task,N,15.0,3.0,3.0,1907.77
642,15,One Back Task,V,365.0,3.0,3.0,1909.8705
643,15,One Back Task,J,412.0,3.0,3.0,1911.9524999999999
644,15,One Back Task,O,349.0,3.0,3.0,1914.0855000000001
645,15,One Back Task,S,445.0,3.0,3.0,1916.0684999999999
646,15,One Back Task,F,291.0,3.0,3.0,1918.2175000000002
647,15,One Back Task,A,355.0,3.0,3.0,1920.201
648,15,One Back Task,A,429.0,4.0,4.0,1922.2675
649,15,One Back Task,N,89.0,3.0,3.0,1924.4005000000002
650,15,One Back Task,O,0.0,3.0,,1926.5005
651,15,One Back Task,A,149.0,3.0,3.0,1928.6995000000002
652,15,One Back Task,X,417.0,3.0,3.0,1930.7820000000002
653,15,One Back Task,U,369.0,3.0,3.0,1932.8670000000002
654,15,One Back Task,U,168.0,4.0,4.0,1934.9165000000003
655,15,One Back Task,D,344.0,3.0,3.0,1936.9990000000003
656,15,One Back Task,D,470.0,4.0,3.0,1939.0155
657,15,One Back Task,J,178.0,3.0,3.0,1941.0805
658,15,One Back Task,Q,33.0,3.0,3.0,1943.1805
659,15,One Back Task,Y,0.0,3.0,,1945.2465000000002
660,16,Three Back Task,J,0.0,2.0,,1962.3775
661,16,Three Back Task,H,0.0,2.0,,1964.5439999999999
662,16,Three Back Task,G,0.0,2.0,,1966.694
663,16,Three Back Task,A,0.0,2.0,,1968.8450000000003
664,16,Three Back Task,B,45.0,2.0,3.0,1970.9945000000002
665,16,Three Back Task,B,179.0,1.0,4.0,1973.0439999999999
666,16,Three Back Task,C,0.0,2.0,,1975.0935
667,16,Three Back Task,J,150.0,2.0,3.0,1977.226
668,16,Three Back Task,H,129.0,2.0,3.0,1978.9935
669,16,Three Back Task,G,780.0,2.0,3.0,1981.0594999999998
670,16,Three Back Task,G,192.0,1.0,4.0,1983.159
671,16,Three Back Task,H,425.0,2.0,4.0,1985.2415
672,16,Three Back Task,J,149.0,2.0,3.0,1987.3265000000001
673,16,Three Back Task,A,85.0,2.0,3.0,1989.3915000000002
674,16,Three Back Task,J,683.0,2.0,4.0,1991.4740000000002
675,16,Three Back Task,J,1090.0,1.0,3.0,1993.5415000000003
676,16,Three Back Task,G,299.0,2.0,4.0,1995.625
677,16,Three Back Task,H,422.0,2.0,4.0,1997.6905000000002
678,16,Three Back Task,H,237.0,1.0,3.0,1999.7565
679,16,Three Back Task,I,330.0,2.0,3.0,2001.656
680,16,Three Back Task,I,326.0,1.0,3.0,2003.6565
681,16,Three Back Task,A,310.0,2.0,3.0,2005.6405
682,17,One Back Task,B,0.0,3.0,,2022.77
683,17,One Back Task,B,141.0,4.0,4.0,2024.9375
684,17,One Back Task,U,209.0,3.0,3.0,2027.004
685,17,One Back Task,F,279.0,3.0,3.0,2029.069
686,17,One Back Task,F,408.0,4.0,4.0,2030.987
687,17,One Back Task,T,331.0,3.0,3.0,2033.0190000000002
688,17,One Back Task,T,455.0,4.0,4.0,2035.036
689,17,One Back Task,O,376.0,3.0,3.0,2037.1689999999999
690,17,One Back Task,R,316.0,3.0,3.0,2039.2350000000001
691,17,One Back Task,Q,467.0,3.0,3.0,2041.252
692,17,One Back Task,X,321.0,3.0,3.0,2043.4015
693,17,One Back Task,X,373.0,4.0,4.0,2045.4180000000001
694,17,One Back Task,R,11.0,3.0,3.0,2047.4505
695,17,One Back Task,S,442.0,3.0,3.0,2049.5165
696,17,One Back Task,S,0.0,4.0,,2051.6165
697,17,One Back Task,L,120.0,3.0,3.0,2053.784
698,17,One Back Task,Q,1.0,3.0,3.0,2055.866
699,17,One Back Task,R,153.0,3.0,3.0,2057.9155
700,17,One Back Task,B,432.0,3.0,3.0,2059.965
701,17,One Back Task,F,356.0,3.0,3.0,2062.0660000000003
702,17,One Back Task,E,435.0,3.0,3.0,2064.148
703,17,One Back Task,'Y',0.0,3.0,,2066.1975
