,TrialNumber,n_back,Stimulus_Letter,Response_Time,Correct_Response,Response,time_sec,subject_no
0,1,Calming - One Back Task,L,0.0,3.0,,0.0,3
1,1,Calming - One Back Task,A,1432.0,3.0,3.0,2.0494999999999663,3
2,1,Calming - One Back Task,E,825.0,3.0,3.0,4.082499999999982,3
3,1,Calming - One Back Task,E,631.0,4.0,4.0,6.0989999999999895,3
4,1,Calming - One Back Task,E,531.0,4.0,4.0,8.131999999999948,3
5,1,Calming - One Back Task,O,421.0,3.0,3.0,10.16700000000003,3
6,1,Calming - One Back Task,A,849.0,4.0,3.0,12.232999999999947,3
7,1,Calming - One Back Task,A,1141.0,4.0,3.0,14.298000000000002,3
8,1,Calming - One Back Task,H,922.0,3.0,3.0,16.347999999999956,3
9,1,Calming - One Back Task,J,387.0,3.0,3.0,18.414499999999975,3
10,1,Calming - One Back Task,D,344.0,3.0,3.0,20.480500000000006,3
11,1,Calming - One Back Task,B,473.0,3.0,3.0,22.53099999999995,3
12,1,Calming - One Back Task,L,668.0,3.0,3.0,24.581000000000017,3
13,1,Calming - One Back Task,V,290.0,3.0,3.0,26.646499999999946,3
14,1,Calming - One Back Task,V,209.0,4.0,4.0,28.69799999999998,3
15,1,Calming - One Back Task,N,282.0,3.0,3.0,30.730000000000018,3
16,1,Calming - One Back Task,V,797.0,3.0,3.0,32.797000000000025,3
17,1,Calming - One Back Task,L,426.0,3.0,3.0,34.861999999999966,3
18,1,Calming - One Back Task,A,350.0,3.0,3.0,36.91250000000002,3
19,1,Calming - One Back Task,E,290.0,3.0,3.0,38.97849999999994,3
20,1,Calming - One Back Task,J,757.0,3.0,3.0,41.011999999999944,3
21,1,Calming - One Back Task,S,392.0,3.0,3.0,43.04449999999997,3
22,2,Calming - Three Back Task,P,0.0,3.0,,60.126499999999965,3
23,2,Calming - Three Back Task,F,0.0,3.0,,62.275499999999965,3
24,2,Calming - Three Back Task,Q,0.0,3.0,,64.45899999999995,3
25,2,Calming - Three Back Task,C,442.0,3.0,3.0,66.62549999999999,3
26,2,Calming - Three Back Task,N,765.0,3.0,3.0,68.69200000000001,3
27,2,Calming - Three Back Task,P,1063.0,3.0,3.0,70.72399999999993,3
28,2,Calming - Three Back Task,C,0.0,4.0,,72.72349999999994,3
29,2,Calming - Three Back Task,N,1147.0,3.0,3.0,74.74000000000001,3
30,2,Calming - Three Back Task,P,623.0,4.0,3.0,76.74000000000001,3
31,2,Calming - Three Back Task,C,462.0,4.0,4.0,78.73950000000002,3
32,2,Calming - Three Back Task,N,410.0,4.0,3.0,80.79049999999995,3
33,2,Calming - Three Back Task,V,0.0,3.0,,82.8895,3
34,2,Calming - Three Back Task,Q,892.0,3.0,3.0,85.10699999999997,3
35,2,Calming - Three Back Task,M,544.0,3.0,3.0,87.2065,3
36,2,Calming - Three Back Task,H,555.0,3.0,3.0,89.30599999999993,3
37,2,Calming - Three Back Task,Q,325.0,4.0,4.0,91.40599999999995,3
38,2,Calming - Three Back Task,X,529.0,3.0,3.0,93.50549999999998,3
39,2,Calming - Three Back Task,N,822.0,3.0,3.0,95.60399999999993,3
40,2,Calming - Three Back Task,Z,532.0,3.0,3.0,97.68849999999998,3
41,2,Calming - Three Back Task,F,457.0,3.0,3.0,99.755,3
42,2,Calming - Three Back Task,C,815.0,3.0,3.0,101.80349999999999,3
43,2,Calming - Three Back Task,H,356.0,3.0,3.0,103.85299999999995,3
44,3,Calming - Three Back Task,D,0.0,3.0,,120.9855,3
45,3,Calming - Three Back Task,X,0.0,3.0,,123.11699999999996,3
46,3,Calming - Three Back Task,M,0.0,3.0,,125.25099999999998,3
47,3,Calming - Three Back Task,I,289.0,3.0,3.0,127.40099999999995,3
48,3,Calming - Three Back Task,X,1378.0,3.0,4.0,129.46849999999995,3
49,3,Calming - Three Back Task,M,840.0,4.0,4.0,131.53449999999998,3
50,3,Calming - Three Back Task,P,629.0,3.0,3.0,133.6005,3
51,3,Calming - Three Back Task,S,560.0,3.0,3.0,135.68399999999997,3
52,3,Calming - Three Back Task,A,876.0,3.0,4.0,137.75,3
53,3,Calming - Three Back Task,N,759.0,3.0,3.0,139.7985,3
54,3,Calming - Three Back Task,W,191.0,3.0,3.0,141.86649999999997,3
55,3,Calming - Three Back Task,V,552.0,3.0,3.0,143.91449999999998,3
56,3,Calming - Three Back Task,A,465.0,3.0,3.0,145.96499999999992,3
57,3,Calming - Three Back Task,W,381.0,4.0,4.0,148.01549999999997,3
58,3,Calming - Three Back Task,B,163.0,3.0,3.0,150.11450000000002,3
59,3,Calming - Three Back Task,A,301.0,4.0,4.0,152.1975,3
60,3,Calming - Three Back Task,Y,271.0,3.0,3.0,154.28099999999995,3
61,3,Calming - Three Back Task,B,322.0,4.0,3.0,156.33050000000003,3
62,3,Calming - Three Back Task,A,519.0,4.0,4.0,158.39699999999993,3
63,3,Calming - Three Back Task,R,477.0,3.0,3.0,160.46349999999995,3
64,3,Calming - Three Back Task,P,998.0,3.0,3.0,162.529,3
65,3,Calming - Three Back Task,C,859.0,3.0,3.0,164.59500000000003,3
66,4,Calming - One Back Task,V,0.0,3.0,,181.69349999999997,3
67,4,Calming - One Back Task,I,198.0,3.0,3.0,183.79399999999998,3
68,4,Calming - One Back Task,Q,293.0,3.0,3.0,185.84249999999997,3
69,4,Calming - One Back Task,H,112.0,3.0,3.0,187.89199999999994,3
70,4,Calming - One Back Task,C,97.0,3.0,3.0,189.942,3
71,4,Calming - One Back Task,N,127.0,3.0,3.0,191.99249999999995,3
72,4,Calming - One Back Task,V,389.0,3.0,3.0,194.04250000000002,3
73,4,Calming - One Back Task,Y,333.0,3.0,3.0,196.10950000000003,3
74,4,Calming - One Back Task,Y,267.0,4.0,4.0,198.17499999999995,3
75,4,Calming - One Back Task,K,275.0,3.0,3.0,200.20799999999997,3
76,4,Calming - One Back Task,K,336.0,4.0,4.0,202.27499999999998,3
77,4,Calming - One Back Task,I,472.0,3.0,3.0,204.32449999999994,3
78,4,Calming - One Back Task,I,202.0,4.0,4.0,206.39099999999996,3
79,4,Calming - One Back Task,O,433.0,3.0,3.0,208.47349999999994,3
80,4,Calming - One Back Task,E,647.0,3.0,3.0,210.53999999999996,3
81,4,Calming - One Back Task,D,369.0,3.0,3.0,212.62249999999995,3
82,4,Calming - One Back Task,V,298.0,3.0,3.0,214.7065,3
83,4,Calming - One Back Task,V,665.0,4.0,4.0,216.77249999999992,3
84,4,Calming - One Back Task,N,376.0,3.0,3.0,218.8225,3
85,4,Calming - One Back Task,N,264.0,4.0,4.0,220.87249999999995,3
86,4,Calming - One Back Task,D,259.0,3.0,3.0,222.92099999999994,3
87,4,Calming - One Back Task,W,385.0,3.0,3.0,224.98699999999997,3
88,5,Calming - Three Back Task,C,0.0,3.0,,242.0525,3
89,5,Calming - Three Back Task,B,0.0,3.0,,244.18599999999992,3
90,5,Calming - Three Back Task,Q,0.0,3.0,,246.31949999999995,3
91,5,Calming - Three Back Task,Y,206.0,3.0,3.0,248.43499999999995,3
92,5,Calming - Three Back Task,R,601.0,3.0,3.0,250.485,3
93,5,Calming - Three Back Task,I,674.0,3.0,3.0,252.55099999999993,3
94,5,Calming - Three Back Task,Y,793.0,4.0,4.0,254.61849999999993,3
95,5,Calming - Three Back Task,N,1194.0,3.0,3.0,256.668,3
96,5,Calming - Three Back Task,Y,935.0,3.0,4.0,258.73299999999995,3
97,5,Calming - Three Back Task,X,359.0,3.0,3.0,260.783,3
98,5,Calming - Three Back Task,F,822.0,3.0,3.0,262.817,3
99,5,Calming - Three Back Task,U,650.0,3.0,3.0,264.8835,3
100,5,Calming - Three Back Task,H,765.0,4.0,3.0,266.94899999999996,3
101,5,Calming - Three Back Task,U,942.0,3.0,3.0,268.999,3
102,5,Calming - Three Back Task,U,507.0,3.0,4.0,271.0145,3
103,5,Calming - Three Back Task,H,819.0,4.0,4.0,273.014,3
104,5,Calming - Three Back Task,W,1092.0,3.0,3.0,275.014,3
105,5,Calming - Three Back Task,U,1160.0,4.0,3.0,277.0135,3
106,5,Calming - Three Back Task,H,1007.0,4.0,4.0,279.0135,3
107,5,Calming - Three Back Task,F,527.0,3.0,3.0,281.03149999999994,3
108,5,Calming - Three Back Task,I,624.0,3.0,3.0,283.0635,3
109,5,Calming - Three Back Task,V,774.0,3.0,3.0,285.11299999999994,3
110,6,Calming - One Back Task,U,0.0,3.0,,302.1954999999999,3
111,6,Calming - One Back Task,R,216.0,3.0,3.0,304.29449999999997,3
112,6,Calming - One Back Task,O,155.0,3.0,3.0,306.345,3
113,6,Calming - One Back Task,P,158.0,3.0,3.0,308.39300000000003,3
114,6,Calming - One Back Task,P,284.0,4.0,4.0,310.443,3
115,6,Calming - One Back Task,P,200.0,4.0,4.0,312.476,3
116,6,Calming - One Back Task,U,245.0,3.0,3.0,314.52649999999994,3
117,6,Calming - One Back Task,Z,195.0,3.0,3.0,316.55899999999997,3
118,6,Calming - One Back Task,U,457.0,3.0,3.0,318.6089999999999,3
119,6,Calming - One Back Task,M,712.0,3.0,3.0,320.659,3
120,6,Calming - One Back Task,M,287.0,4.0,4.0,322.69100000000003,3
121,6,Calming - One Back Task,W,130.0,3.0,3.0,324.7255,3
122,6,Calming - One Back Task,I,311.0,3.0,3.0,326.775,3
123,6,Calming - One Back Task,F,510.0,3.0,3.0,328.82449999999994,3
124,6,Calming - One Back Task,M,562.0,3.0,3.0,330.8745,3
125,6,Calming - One Back Task,A,157.0,3.0,3.0,332.9235,3
126,6,Calming - One Back Task,G,285.0,3.0,3.0,334.9905,3
127,6,Calming - One Back Task,G,654.0,4.0,3.0,337.0235,3
128,6,Calming - One Back Task,R,768.0,3.0,3.0,339.0565,3
129,6,Calming - One Back Task,Q,210.0,3.0,3.0,341.1055,3
130,6,Calming - One Back Task,R,335.0,4.0,3.0,343.1725,3
131,6,Calming - One Back Task,Q,358.0,3.0,4.0,345.2049999999999,3
132,7,Calming - One Back Task,S,0.0,3.0,,362.336,3
133,7,Calming - One Back Task,R,80.0,3.0,3.0,364.47,3
134,7,Calming - One Back Task,V,283.0,3.0,3.0,366.519,3
135,7,Calming - One Back Task,V,230.0,4.0,4.0,368.5514999999999,3
136,7,Calming - One Back Task,O,204.0,3.0,3.0,370.5849999999999,3
137,7,Calming - One Back Task,A,159.0,3.0,3.0,372.63599999999997,3
138,7,Calming - One Back Task,C,204.0,3.0,3.0,374.736,3
139,7,Calming - One Back Task,N,221.0,3.0,3.0,376.80099999999993,3
140,7,Calming - One Back Task,Y,47.0,3.0,3.0,378.90149999999994,3
141,7,Calming - One Back Task,V,326.0,3.0,3.0,381.019,3
142,7,Calming - One Back Task,V,3.0,4.0,4.0,383.11799999999994,3
143,7,Calming - One Back Task,J,688.0,3.0,3.0,385.2004999999999,3
144,7,Calming - One Back Task,U,221.0,3.0,3.0,387.284,3
145,7,Calming - One Back Task,U,71.0,4.0,4.0,389.35,3
146,7,Calming - One Back Task,U,0.0,4.0,,391.4515,3
147,7,Calming - One Back Task,Y,50.0,3.0,3.0,393.6165,3
148,7,Calming - One Back Task,Y,660.0,4.0,3.0,395.6825,3
149,7,Calming - One Back Task,J,325.0,3.0,3.0,397.7655,3
150,7,Calming - One Back Task,I,403.0,3.0,3.0,399.8645,3
151,7,Calming - One Back Task,S,313.0,3.0,3.0,401.94849999999997,3
152,7,Calming - One Back Task,U,247.0,3.0,4.0,404.03149999999994,3
153,7,Calming - One Back Task,P,75.0,3.0,3.0,406.11349999999993,3
154,8,Calming - Three Back Task,L,0.0,3.0,,423.2115,3
155,8,Calming - Three Back Task,A,0.0,3.0,,425.37799999999993,3
156,8,Calming - Three Back Task,P,0.0,3.0,,427.5955,3
157,8,Calming - Three Back Task,L,0.0,4.0,,429.72799999999995,3
158,8,Calming - Three Back Task,A,460.0,4.0,4.0,431.879,3
159,8,Calming - Three Back Task,N,637.0,3.0,3.0,433.94399999999996,3
160,8,Calming - Three Back Task,W,1036.0,3.0,3.0,436.01099999999997,3
161,8,Calming - Three Back Task,C,769.0,3.0,3.0,438.076,3
162,8,Calming - Three Back Task,L,497.0,3.0,4.0,440.126,3
163,8,Calming - Three Back Task,W,716.0,4.0,4.0,442.19399999999996,3
164,8,Calming - Three Back Task,U,457.0,3.0,3.0,444.24299999999994,3
165,8,Calming - Three Back Task,S,686.0,3.0,3.0,446.2914999999999,3
166,8,Calming - Three Back Task,W,403.0,4.0,4.0,448.35799999999995,3
167,8,Calming - Three Back Task,Y,430.0,3.0,3.0,450.42449999999997,3
168,8,Calming - Three Back Task,F,1003.0,3.0,3.0,452.4755,3
169,8,Calming - Three Back Task,L,433.0,3.0,4.0,454.5585,3
170,8,Calming - Three Back Task,Y,420.0,4.0,3.0,456.64149999999995,3
171,8,Calming - Three Back Task,U,541.0,3.0,3.0,458.68999999999994,3
172,8,Calming - Three Back Task,L,470.0,3.0,4.0,460.75749999999994,3
173,8,Calming - Three Back Task,I,326.0,3.0,3.0,462.82349999999997,3
174,8,Calming - Three Back Task,B,521.0,3.0,3.0,464.8734999999999,3
175,8,Calming - Three Back Task,T,597.0,3.0,3.0,466.93899999999996,3
176,10,Calming - Three Back Task,E,0.0,3.0,,499.1015,3
177,10,Calming - Three Back Task,G,0.0,3.0,,501.2365,3
178,10,Calming - Three Back Task,S,0.0,3.0,,503.369,3
179,10,Calming - Three Back Task,J,212.0,3.0,3.0,505.4845,3
180,10,Calming - Three Back Task,Z,493.0,3.0,3.0,507.55049999999994,3
181,10,Calming - Three Back Task,Q,611.0,3.0,3.0,509.61799999999994,3
182,10,Calming - Three Back Task,W,422.0,3.0,3.0,511.6664999999999,3
183,10,Calming - Three Back Task,K,232.0,3.0,3.0,513.7339999999999,3
184,10,Calming - Three Back Task,Q,587.0,3.0,3.0,515.817,3
185,10,Calming - Three Back Task,S,360.0,3.0,4.0,517.8835,3
186,10,Calming - Three Back Task,M,458.0,3.0,3.0,519.9649999999999,3
187,10,Calming - Three Back Task,Q,816.0,3.0,3.0,522.0319999999999,3
188,10,Calming - Three Back Task,S,1067.0,4.0,3.0,524.0815,3
189,10,Calming - Three Back Task,F,824.0,4.0,3.0,526.098,3
190,10,Calming - Three Back Task,Q,196.0,4.0,4.0,528.0975000000001,3
191,10,Calming - Three Back Task,X,823.0,3.0,3.0,530.0975000000001,3
192,10,Calming - Three Back Task,F,1068.0,4.0,4.0,532.097,3
193,10,Calming - Three Back Task,K,817.0,3.0,3.0,534.165,3
194,10,Calming - Three Back Task,X,1186.0,3.0,4.0,536.2155,3
195,10,Calming - Three Back Task,K,539.0,3.0,4.0,538.28,3
196,10,Calming - Three Back Task,R,727.0,3.0,3.0,540.346,3
197,10,Calming - Three Back Task,X,840.0,4.0,3.0,542.3799999999999,3
198,11,Calming - One Back Task,B,0.0,3.0,,559.4614999999999,3
199,11,Calming - One Back Task,B,2.0,4.0,4.0,561.5935,3
200,11,Calming - One Back Task,V,166.0,3.0,3.0,563.6265000000001,3
201,11,Calming - One Back Task,P,285.0,3.0,3.0,565.626,3
202,11,Calming - One Back Task,P,57.0,4.0,4.0,567.626,3
203,11,Calming - One Back Task,Q,625.0,3.0,3.0,569.6254999999999,3
204,11,Calming - One Back Task,E,250.0,3.0,3.0,571.625,3
205,11,Calming - One Back Task,E,229.0,4.0,4.0,573.6595,3
206,11,Calming - One Back Task,M,304.0,3.0,3.0,575.7090000000001,3
207,11,Calming - One Back Task,M,1034.0,4.0,3.0,577.742,3
208,11,Calming - One Back Task,M,238.0,4.0,4.0,579.7925,3
209,11,Calming - One Back Task,T,806.0,3.0,4.0,581.8415,3
210,11,Calming - One Back Task,E,643.0,3.0,3.0,583.892,3
211,11,Calming - One Back Task,R,526.0,3.0,3.0,585.9575,3
212,11,Calming - One Back Task,X,556.0,3.0,3.0,588.0065,3
213,11,Calming - One Back Task,E,423.0,3.0,3.0,590.0745,3
214,11,Calming - One Back Task,L,232.0,3.0,3.0,592.107,3
215,11,Calming - One Back Task,B,174.0,3.0,3.0,594.1565,3
216,11,Calming - One Back Task,R,328.0,3.0,3.0,596.2394999999999,3
217,11,Calming - One Back Task,W,314.0,3.0,3.0,598.306,3
218,11,Calming - One Back Task,W,213.0,4.0,4.0,600.3885,3
219,11,Calming - One Back Task,I,62.0,3.0,3.0,602.488,3
220,12,Calming - One Back Task,I,0.0,3.0,,619.6205,3
221,12,Calming - One Back Task,T,207.0,3.0,3.0,621.7864999999999,3
222,12,Calming - One Back Task,H,460.0,3.0,3.0,623.8530000000001,3
223,12,Calming - One Back Task,H,734.0,4.0,4.0,625.9189999999999,3
224,12,Calming - One Back Task,Y,203.0,3.0,3.0,627.9855,3
225,12,Calming - One Back Task,G,232.0,3.0,3.0,630.068,3
226,12,Calming - One Back Task,G,331.0,4.0,4.0,632.1685,3
227,12,Calming - One Back Task,G,116.0,4.0,4.0,634.219,3
228,12,Calming - One Back Task,Y,17.0,3.0,3.0,636.3,3
229,12,Calming - One Back Task,W,200.0,3.0,3.0,638.3844999999999,3
230,12,Calming - One Back Task,W,203.0,4.0,4.0,640.45,3
231,12,Calming - One Back Task,U,704.0,3.0,3.0,642.5329999999999,3
232,12,Calming - One Back Task,A,376.0,3.0,3.0,644.6005,3
233,12,Calming - One Back Task,U,656.0,3.0,4.0,646.683,3
234,12,Calming - One Back Task,R,295.0,3.0,3.0,648.749,3
235,12,Calming - One Back Task,W,315.0,3.0,3.0,650.8164999999999,3
236,12,Calming - One Back Task,P,230.0,3.0,3.0,652.8815,3
237,12,Calming - One Back Task,Q,186.0,3.0,3.0,654.9659999999999,3
238,12,Calming - One Back Task,C,122.0,3.0,3.0,657.065,3
239,12,Calming - One Back Task,A,378.0,3.0,3.0,659.1655000000001,3
240,12,Calming - One Back Task,A,48.0,4.0,4.0,661.248,3
241,12,Calming - One Back Task,L,135.0,3.0,3.0,663.3315,3
242,13,Calming - Three Back Task,A,0.0,3.0,,680.4110000000001,3
243,13,Calming - Three Back Task,H,0.0,3.0,,682.461,3
244,13,Calming - Three Back Task,U,0.0,3.0,,684.6115,3
245,13,Calming - Three Back Task,J,376.0,3.0,3.0,686.7124999999999,3
246,13,Calming - Three Back Task,V,269.0,3.0,3.0,688.778,3
247,13,Calming - Three Back Task,N,232.0,3.0,3.0,690.844,3
248,13,Calming - Three Back Task,J,461.0,3.0,4.0,692.9275,3
249,13,Calming - Three Back Task,V,375.0,4.0,3.0,694.9955,3
250,13,Calming - Three Back Task,N,1002.0,4.0,3.0,697.077,3
251,13,Calming - Three Back Task,U,506.0,3.0,4.0,699.127,3
252,13,Calming - Three Back Task,V,787.0,4.0,3.0,701.193,3
253,13,Calming - Three Back Task,E,808.0,3.0,3.0,703.259,3
254,13,Calming - Three Back Task,D,927.0,3.0,3.0,705.309,3
255,13,Calming - Three Back Task,X,853.0,3.0,3.0,707.3744999999999,3
256,13,Calming - Three Back Task,Q,621.0,3.0,3.0,709.4585,3
257,13,Calming - Three Back Task,O,520.0,3.0,3.0,711.5419999999999,3
258,13,Calming - Three Back Task,X,290.0,4.0,4.0,713.607,3
259,13,Calming - Three Back Task,N,1222.0,3.0,4.0,715.674,3
260,13,Calming - Three Back Task,O,616.0,4.0,4.0,717.7394999999999,3
261,13,Calming - Three Back Task,P,294.0,3.0,3.0,719.8064999999999,3
262,13,Calming - Three Back Task,T,555.0,3.0,3.0,721.8725,3
263,13,Calming - Three Back Task,W,421.0,3.0,3.0,723.9404999999999,3
264,14,Calming - Three Back Task,X,0.0,3.0,,741.0364999999999,3
265,14,Calming - Three Back Task,K,0.0,3.0,,743.203,3
266,14,Calming - Three Back Task,O,0.0,3.0,,745.3209999999999,3
267,14,Calming - Three Back Task,X,451.0,4.0,4.0,747.4870000000001,3
268,14,Calming - Three Back Task,K,438.0,4.0,4.0,749.5525,3
269,14,Calming - Three Back Task,J,451.0,3.0,3.0,751.6019999999999,3
270,14,Calming - Three Back Task,M,336.0,3.0,3.0,753.6524999999999,3
271,14,Calming - Three Back Task,G,1014.0,3.0,3.0,755.7180000000001,3
272,14,Calming - Three Back Task,Y,610.0,3.0,3.0,757.769,3
273,14,Calming - Three Back Task,M,358.0,3.0,4.0,759.8354999999999,3
274,14,Calming - Three Back Task,K,673.0,3.0,3.0,761.8854999999999,3
275,14,Calming - Three Back Task,E,541.0,3.0,3.0,763.9334999999999,3
276,14,Calming - Three Back Task,S,579.0,3.0,3.0,765.9839999999999,3
277,14,Calming - Three Back Task,K,277.0,4.0,4.0,768.05,3
278,14,Calming - Three Back Task,E,735.0,4.0,4.0,770.0835,3
279,14,Calming - Three Back Task,F,260.0,3.0,3.0,772.1324999999999,3
280,14,Calming - Three Back Task,P,367.0,3.0,3.0,774.1990000000001,3
281,14,Calming - Three Back Task,J,1041.0,3.0,3.0,776.2665,3
282,14,Calming - Three Back Task,F,1177.0,4.0,3.0,778.3325,3
283,14,Calming - Three Back Task,N,1231.0,3.0,3.0,780.3834999999999,3
284,14,Calming - Three Back Task,L,907.0,3.0,3.0,782.4495,3
285,14,Calming - Three Back Task,T,823.0,3.0,3.0,784.5155,3
286,15,Calming - One Back Task,V,0.0,3.0,,801.5455,3
287,15,Calming - One Back Task,J,314.0,3.0,3.0,803.5619999999999,3
288,15,Calming - One Back Task,U,299.0,3.0,3.0,805.5805,3
289,15,Calming - One Back Task,J,609.0,3.0,3.0,807.6289999999999,3
290,15,Calming - One Back Task,J,425.0,4.0,3.0,809.6779999999999,3
291,15,Calming - One Back Task,J,367.0,4.0,4.0,811.7114999999999,3
292,15,Calming - One Back Task,K,481.0,3.0,3.0,813.762,3
293,15,Calming - One Back Task,K,369.0,3.0,4.0,815.827,3
294,15,Calming - One Back Task,F,628.0,3.0,3.0,817.877,3
295,15,Calming - One Back Task,F,254.0,4.0,4.0,819.9114999999999,3
296,15,Calming - One Back Task,M,859.0,3.0,3.0,821.9759999999999,3
297,15,Calming - One Back Task,B,388.0,3.0,3.0,824.0435,3
298,15,Calming - One Back Task,O,836.0,3.0,3.0,826.0935,3
299,15,Calming - One Back Task,B,581.0,3.0,4.0,828.1595,3
300,15,Calming - One Back Task,W,795.0,3.0,3.0,830.192,3
301,15,Calming - One Back Task,Z,341.0,3.0,3.0,832.2429999999999,3
302,15,Calming - One Back Task,Z,324.0,4.0,4.0,834.2745,3
303,15,Calming - One Back Task,Y,248.0,3.0,3.0,836.3245,3
304,15,Calming - One Back Task,Z,372.0,3.0,4.0,838.3754999999999,3
305,15,Calming - One Back Task,E,465.0,3.0,3.0,840.425,3
306,15,Calming - One Back Task,A,315.0,3.0,3.0,842.49,3
307,15,Calming - One Back Task,A,143.0,4.0,4.0,844.54,3
308,16,Calming - Three Back Task,J,0.0,3.0,,861.6215,3
309,16,Calming - Three Back Task,O,0.0,3.0,,863.789,3
310,16,Calming - Three Back Task,X,0.0,3.0,,865.954,3
311,16,Calming - Three Back Task,V,605.0,3.0,3.0,868.1034999999999,3
312,16,Calming - Three Back Task,X,430.0,3.0,4.0,870.203,3
313,16,Calming - Three Back Task,Y,429.0,3.0,3.0,872.3029999999999,3
314,16,Calming - Three Back Task,G,676.0,3.0,3.0,874.3705,3
315,16,Calming - Three Back Task,A,299.0,3.0,3.0,876.4535000000001,3
316,16,Calming - Three Back Task,C,294.0,3.0,3.0,878.5364999999999,3
317,16,Calming - Three Back Task,G,136.0,4.0,4.0,880.6030000000001,3
318,16,Calming - Three Back Task,O,399.0,4.0,3.0,882.6685,3
319,16,Calming - Three Back Task,L,478.0,3.0,3.0,884.7355,3
320,16,Calming - Three Back Task,H,547.0,3.0,3.0,886.8185000000001,3
321,16,Calming - Three Back Task,O,211.0,4.0,4.0,888.9010000000001,3
322,16,Calming - Three Back Task,Y,245.0,3.0,3.0,891.001,3
323,16,Calming - Three Back Task,H,977.0,4.0,4.0,893.0999999999999,3
324,16,Calming - Three Back Task,I,391.0,3.0,3.0,895.2,3
325,16,Calming - Three Back Task,N,518.0,3.0,3.0,897.2850000000001,3
326,16,Calming - Three Back Task,I,91.0,3.0,4.0,899.366,3
327,16,Calming - Three Back Task,D,454.0,3.0,3.0,901.4669999999999,3
328,16,Calming - Three Back Task,N,516.0,4.0,3.0,903.5840000000001,3
329,16,Calming - Three Back Task,W,1017.0,3.0,3.0,905.6659999999999,3
330,17,Calming - One Back Task,I,0.0,3.0,,922.781,3
331,17,Calming - One Back Task,T,279.0,3.0,3.0,924.9475,3
332,17,Calming - One Back Task,H,277.0,3.0,3.0,927.0294999999999,3
333,17,Calming - One Back Task,H,1014.0,4.0,3.0,929.1134999999999,3
334,17,Calming - One Back Task,Y,828.0,3.0,3.0,931.213,3
335,17,Calming - One Back Task,G,329.0,3.0,3.0,933.2955,3
336,17,Calming - One Back Task,G,208.0,4.0,4.0,935.3789999999999,3
337,17,Calming - One Back Task,G,85.0,4.0,4.0,937.4459999999999,3
338,17,Calming - One Back Task,Y,55.0,3.0,3.0,939.512,3
339,17,Calming - One Back Task,W,611.0,3.0,3.0,941.5605,3
340,17,Calming - One Back Task,W,195.0,4.0,4.0,943.5935,3
341,17,Calming - One Back Task,U,361.0,3.0,3.0,945.6265000000001,3
342,17,Calming - One Back Task,A,266.0,3.0,3.0,947.6595,3
343,17,Calming - One Back Task,U,564.0,3.0,3.0,949.6924999999999,3
344,17,Calming - One Back Task,R,315.0,3.0,3.0,951.7259999999999,3
345,17,Calming - One Back Task,W,367.0,3.0,3.0,953.759,3
346,17,Calming - One Back Task,P,110.0,3.0,3.0,955.81,3
347,17,Calming - One Back Task,Q,141.0,3.0,3.0,957.9089999999999,3
348,17,Calming - One Back Task,C,285.0,3.0,3.0,959.9925000000001,3
349,17,Calming - One Back Task,A,23.0,3.0,3.0,962.076,3
350,17,Calming - One Back Task,A,239.0,4.0,3.0,964.1585,3
351,17,Calming - One Back Task,L,26.0,3.0,3.0,966.2239999999999,3
352,1,Vexing - One Back Task,L,0.0,3.0,,1110.5235,3
353,1,Vexing - One Back Task,Q,108.0,3.0,3.0,1112.6385,3
354,1,Vexing - One Back Task,U,95.0,3.0,3.0,1114.6715,3
355,1,Vexing - One Back Task,O,152.0,3.0,3.0,1116.738,3
356,1,Vexing - One Back Task,U,475.0,3.0,3.0,1118.805,3
357,1,Vexing - One Back Task,U,69.0,4.0,4.0,1120.904,3
358,1,Vexing - One Back Task,H,182.0,3.0,3.0,1122.9714999999999,3
359,1,Vexing - One Back Task,V,219.0,3.0,3.0,1125.0545,3
360,1,Vexing - One Back Task,K,270.0,3.0,3.0,1127.1209999999999,3
361,1,Vexing - One Back Task,K,177.0,4.0,4.0,1129.186,3
362,1,Vexing - One Back Task,K,193.0,4.0,4.0,1131.2535,3
363,1,Vexing - One Back Task,B,246.0,3.0,3.0,1133.337,3
364,1,Vexing - One Back Task,R,476.0,3.0,3.0,1135.4189999999999,3
365,1,Vexing - One Back Task,F,772.0,4.0,3.0,1137.4865,3
366,1,Vexing - One Back Task,F,242.0,4.0,4.0,1139.568,3
367,1,Vexing - One Back Task,C,664.0,3.0,3.0,1141.6689999999999,3
368,1,Vexing - One Back Task,G,466.0,3.0,3.0,1143.768,3
369,1,Vexing - One Back Task,X,161.0,3.0,3.0,1145.868,3
370,1,Vexing - One Back Task,F,441.0,3.0,3.0,1147.9515,3
371,1,Vexing - One Back Task,M,229.0,3.0,3.0,1150.0345,3
372,1,Vexing - One Back Task,X,286.0,3.0,3.0,1152.1005,3
373,1,Vexing - One Back Task,F,506.0,3.0,3.0,1154.183,3
374,2,Vexing - Three Back Task,Z,0.0,3.0,,1171.264,3
375,2,Vexing - Three Back Task,U,0.0,3.0,,1173.3135,3
376,2,Vexing - Three Back Task,F,0.0,3.0,,1175.3635,3
377,2,Vexing - Three Back Task,Z,596.0,3.0,3.0,1177.48,3
378,2,Vexing - Three Back Task,B,655.0,3.0,4.0,1179.564,3
379,2,Vexing - Three Back Task,L,599.0,3.0,3.0,1181.631,3
380,2,Vexing - Three Back Task,K,244.0,3.0,3.0,1183.696,3
381,2,Vexing - Three Back Task,C,459.0,3.0,3.0,1185.762,3
382,2,Vexing - Three Back Task,L,484.0,3.0,4.0,1187.8285,3
383,2,Vexing - Three Back Task,J,596.0,3.0,3.0,1189.8965,3
384,2,Vexing - Three Back Task,G,1031.0,3.0,3.0,1191.9795,3
385,2,Vexing - Three Back Task,F,1236.0,3.0,3.0,1194.046,3
386,2,Vexing - Three Back Task,J,506.0,4.0,4.0,1196.112,3
387,2,Vexing - Three Back Task,G,544.0,4.0,4.0,1198.177,3
388,2,Vexing - Three Back Task,H,620.0,3.0,3.0,1200.2435,3
389,2,Vexing - Three Back Task,E,775.0,3.0,3.0,1202.3115,3
390,2,Vexing - Three Back Task,W,822.0,3.0,3.0,1204.3775,3
391,2,Vexing - Three Back Task,N,907.0,3.0,3.0,1206.461,3
392,2,Vexing - Three Back Task,X,1012.0,3.0,3.0,1208.527,3
393,2,Vexing - Three Back Task,W,512.0,4.0,4.0,1210.559,3
394,2,Vexing - Three Back Task,N,1484.0,4.0,3.0,1212.5919999999999,3
395,2,Vexing - Three Back Task,X,493.0,4.0,4.0,1214.625,3
396,3,Vexing - One Back Task,Y,0.0,3.0,,1231.7075,3
397,3,Vexing - One Back Task,E,163.0,3.0,3.0,1233.907,3
398,3,Vexing - One Back Task,A,214.0,3.0,3.0,1235.9904999999999,3
399,3,Vexing - One Back Task,A,937.0,4.0,3.0,1238.0394999999999,3
400,3,Vexing - One Back Task,V,691.0,4.0,3.0,1240.106,3
401,3,Vexing - One Back Task,X,605.0,4.0,3.0,1242.172,3
402,3,Vexing - One Back Task,X,276.0,4.0,4.0,1244.222,3
403,3,Vexing - One Back Task,S,346.0,3.0,3.0,1246.2884999999999,3
404,3,Vexing - One Back Task,G,561.0,3.0,3.0,1248.3374999999999,3
405,3,Vexing - One Back Task,P,335.0,3.0,3.0,1250.387,3
406,3,Vexing - One Back Task,Y,363.0,3.0,3.0,1252.4535,3
407,3,Vexing - One Back Task,X,461.0,3.0,3.0,1254.503,3
408,3,Vexing - One Back Task,P,382.0,3.0,3.0,1256.5874999999999,3
409,3,Vexing - One Back Task,U,779.0,3.0,3.0,1258.637,3
410,3,Vexing - One Back Task,V,357.0,3.0,3.0,1260.686,3
411,3,Vexing - One Back Task,A,0.0,3.0,,1262.7535,3
412,3,Vexing - One Back Task,A,548.0,4.0,4.0,1264.903,3
413,3,Vexing - One Back Task,G,393.0,3.0,3.0,1266.9524999999999,3
414,3,Vexing - One Back Task,L,1156.0,3.0,3.0,1269.0015,3
415,3,Vexing - One Back Task,W,632.0,3.0,3.0,1271.052,3
416,3,Vexing - One Back Task,B,284.0,3.0,3.0,1273.0845,3
417,3,Vexing - One Back Task,I,172.0,3.0,3.0,1275.152,3
418,4,Vexing - Three Back Task,F,0.0,3.0,,1292.233,3
419,4,Vexing - Three Back Task,O,0.0,3.0,,1294.3815,3
420,4,Vexing - Three Back Task,H,0.0,3.0,,1296.4645,3
421,4,Vexing - Three Back Task,W,543.0,3.0,3.0,1298.581,3
422,4,Vexing - Three Back Task,O,1394.0,4.0,4.0,1300.616,3
423,4,Vexing - Three Back Task,M,438.0,3.0,3.0,1302.6634999999999,3
424,4,Vexing - Three Back Task,L,491.0,3.0,3.0,1304.6979999999999,3
425,4,Vexing - Three Back Task,L,602.0,3.0,3.0,1306.7465,3
426,4,Vexing - Three Back Task,R,838.0,3.0,3.0,1308.7805,3
427,4,Vexing - Three Back Task,E,616.0,3.0,3.0,1310.829,3
428,4,Vexing - Three Back Task,L,350.0,4.0,4.0,1312.8955,3
429,4,Vexing - Three Back Task,N,205.0,3.0,3.0,1314.9285,3
430,4,Vexing - Three Back Task,J,339.0,3.0,3.0,1316.995,3
431,4,Vexing - Three Back Task,M,662.0,3.0,3.0,1319.0294999999999,3
432,4,Vexing - Three Back Task,Y,644.0,3.0,3.0,1321.078,3
433,4,Vexing - Three Back Task,U,591.0,3.0,3.0,1323.1115,3
434,4,Vexing - Three Back Task,S,654.0,3.0,3.0,1325.1444999999999,3
435,4,Vexing - Three Back Task,Y,420.0,4.0,4.0,1327.1779999999999,3
436,4,Vexing - Three Back Task,M,629.0,3.0,3.0,1329.228,3
437,4,Vexing - Three Back Task,S,1262.0,4.0,3.0,1331.26,3
438,4,Vexing - Three Back Task,Y,441.0,4.0,4.0,1333.3095,3
439,4,Vexing - Three Back Task,N,235.0,3.0,3.0,1335.343,3
440,5,Vexing - One Back Task,A,0.0,3.0,,1352.4085,3
441,5,Vexing - One Back Task,A,164.0,4.0,4.0,1354.5584999999999,3
442,5,Vexing - One Back Task,D,62.0,3.0,3.0,1356.608,3
443,5,Vexing - One Back Task,M,633.0,3.0,3.0,1358.6395,3
444,5,Vexing - One Back Task,X,277.0,3.0,3.0,1360.6395,3
445,5,Vexing - One Back Task,H,168.0,3.0,3.0,1362.639,3
446,5,Vexing - One Back Task,U,201.0,3.0,3.0,1364.639,3
447,5,Vexing - One Back Task,G,84.0,3.0,3.0,1366.6385,3
448,5,Vexing - One Back Task,G,519.0,4.0,4.0,1368.6725,3
449,5,Vexing - One Back Task,G,231.0,4.0,4.0,1370.7214999999999,3
450,5,Vexing - One Back Task,C,46.0,3.0,3.0,1372.7545,3
451,5,Vexing - One Back Task,W,160.0,3.0,3.0,1374.822,3
452,5,Vexing - One Back Task,Y,401.0,3.0,3.0,1376.872,3
453,5,Vexing - One Back Task,Y,408.0,4.0,4.0,1378.9385,3
454,5,Vexing - One Back Task,N,485.0,3.0,3.0,1381.0215,3
455,5,Vexing - One Back Task,N,451.0,4.0,3.0,1383.103,3
456,5,Vexing - One Back Task,X,847.0,3.0,3.0,1385.1885,3
457,5,Vexing - One Back Task,M,488.0,3.0,3.0,1387.2535,3
458,5,Vexing - One Back Task,X,695.0,3.0,3.0,1389.337,3
459,5,Vexing - One Back Task,A,840.0,3.0,4.0,1391.4195,3
460,5,Vexing - One Back Task,D,600.0,3.0,3.0,1393.4685,3
461,5,Vexing - One Back Task,'T',0.0,3.0,,1395.5185,3
462,6,Vexing - Three Back Task,V,0.0,3.0,,1412.6335,3
463,6,Vexing - Three Back Task,D,0.0,3.0,,1414.767,3
464,6,Vexing - Three Back Task,K,0.0,3.0,,1416.8995,3
465,6,Vexing - Three Back Task,D,689.0,3.0,3.0,1419.033,3
466,6,Vexing - Three Back Task,Z,914.0,3.0,3.0,1421.0995,3
467,6,Vexing - Three Back Task,J,610.0,3.0,3.0,1423.166,3
468,6,Vexing - Three Back Task,G,625.0,3.0,3.0,1425.2649999999999,3
469,6,Vexing - Three Back Task,Z,344.0,4.0,4.0,1427.3319999999999,3
470,6,Vexing - Three Back Task,J,588.0,4.0,4.0,1429.398,3
471,6,Vexing - Three Back Task,Q,348.0,3.0,3.0,1431.481,3
472,6,Vexing - Three Back Task,B,551.0,3.0,3.0,1433.5475,3
473,6,Vexing - Three Back Task,Z,385.0,3.0,4.0,1435.5964999999999,3
474,6,Vexing - Three Back Task,Q,760.0,4.0,3.0,1437.6634999999999,3
475,6,Vexing - Three Back Task,B,318.0,4.0,4.0,1439.729,3
476,6,Vexing - Three Back Task,B,505.0,3.0,3.0,1441.797,3
477,6,Vexing - Three Back Task,E,624.0,3.0,3.0,1443.8799999999999,3
478,6,Vexing - Three Back Task,G,514.0,3.0,3.0,1445.9465,3
479,6,Vexing - Three Back Task,B,276.0,4.0,4.0,1448.0285,3
480,6,Vexing - Three Back Task,X,138.0,3.0,3.0,1450.0955,3
481,6,Vexing - Three Back Task,U,750.0,3.0,3.0,1452.195,3
482,6,Vexing - Three Back Task,J,335.0,3.0,3.0,1454.278,3
483,6,Vexing - Three Back Task,V,449.0,3.0,3.0,1456.345,3
484,7,Vexing - One Back Task,A,0.0,3.0,,1473.443,3
485,7,Vexing - One Back Task,W,325.0,3.0,3.0,1475.6254999999999,3
486,7,Vexing - One Back Task,X,190.0,3.0,3.0,1477.7255,3
487,7,Vexing - One Back Task,M,468.0,3.0,3.0,1479.792,3
488,7,Vexing - One Back Task,F,406.0,3.0,3.0,1481.8915,3
489,7,Vexing - One Back Task,S,76.0,3.0,3.0,1483.958,3
490,7,Vexing - One Back Task,E,205.0,3.0,3.0,1486.058,3
491,7,Vexing - One Back Task,E,522.0,4.0,3.0,1488.107,3
492,7,Vexing - One Back Task,U,252.0,3.0,3.0,1490.157,3
493,7,Vexing - One Back Task,Y,251.0,3.0,3.0,1492.24,3
494,7,Vexing - One Back Task,Y,261.0,4.0,4.0,1494.339,3
495,7,Vexing - One Back Task,Y,278.0,4.0,4.0,1496.4065,3
496,7,Vexing - One Back Task,V,95.0,3.0,3.0,1498.4714999999999,3
497,7,Vexing - One Back Task,A,104.0,3.0,3.0,1500.522,3
498,7,Vexing - One Back Task,A,144.0,4.0,4.0,1502.6215,3
499,7,Vexing - One Back Task,G,399.0,3.0,3.0,1504.705,3
500,7,Vexing - One Back Task,S,162.0,3.0,3.0,1506.7715,3
501,7,Vexing - One Back Task,F,108.0,3.0,3.0,1508.854,3
502,7,Vexing - One Back Task,I,34.0,3.0,3.0,1510.9375,3
503,7,Vexing - One Back Task,B,106.0,3.0,3.0,1513.037,3
504,7,Vexing - One Back Task,B,164.0,4.0,4.0,1515.1035,3
505,7,Vexing - One Back Task,T,169.0,3.0,3.0,1517.1695,3
506,8,Vexing - Three Back Task,T,0.0,3.0,,1534.268,3
507,8,Vexing - Three Back Task,R,0.0,3.0,,1536.3845,3
508,8,Vexing - Three Back Task,A,0.0,3.0,,1538.5165,3
509,8,Vexing - Three Back Task,M,42.0,3.0,3.0,1540.6505,3
510,8,Vexing - Three Back Task,Z,583.0,3.0,3.0,1542.716,3
511,8,Vexing - Three Back Task,C,416.0,3.0,3.0,1544.7655,3
512,8,Vexing - Three Back Task,M,163.0,3.0,4.0,1546.8335000000002,3
513,8,Vexing - Three Back Task,O,376.0,3.0,3.0,1548.8815,3
514,8,Vexing - Three Back Task,P,493.0,3.0,3.0,1550.9144999999999,3
515,8,Vexing - Three Back Task,M,184.0,4.0,4.0,1552.9485,3
516,8,Vexing - Three Back Task,O,342.0,4.0,4.0,1555.0144999999998,3
517,8,Vexing - Three Back Task,O,323.0,3.0,3.0,1557.0810000000001,3
518,8,Vexing - Three Back Task,B,562.0,3.0,3.0,1559.1309999999999,3
519,8,Vexing - Three Back Task,H,447.0,3.0,3.0,1561.181,3
520,8,Vexing - Three Back Task,Z,357.0,4.0,3.0,1563.2465000000002,3
521,8,Vexing - Three Back Task,Q,283.0,3.0,3.0,1565.297,3
522,8,Vexing - Three Back Task,Y,332.0,3.0,3.0,1567.3474999999999,3
523,8,Vexing - Three Back Task,Z,247.0,4.0,4.0,1569.3964999999998,3
524,8,Vexing - Three Back Task,M,1419.0,3.0,3.0,1571.462,3
525,8,Vexing - Three Back Task,R,448.0,3.0,3.0,1573.5115,3
526,8,Vexing - Three Back Task,P,194.0,3.0,3.0,1575.5465,3
527,8,Vexing - Three Back Task,M,275.0,4.0,4.0,1577.5785,3
528,10,Vexing - One Back Task,J,0.0,3.0,,1609.6235000000001,3
529,10,Vexing - One Back Task,J,330.0,4.0,4.0,1611.6399999999999,3
530,10,Vexing - One Back Task,N,476.0,3.0,3.0,1613.6394999999998,3
531,10,Vexing - One Back Task,S,198.0,3.0,3.0,1615.6394999999998,3
532,10,Vexing - One Back Task,N,405.0,3.0,3.0,1617.6390000000001,3
533,10,Vexing - One Back Task,N,157.0,4.0,4.0,1619.6390000000001,3
534,10,Vexing - One Back Task,R,145.0,3.0,3.0,1621.6385,3
535,10,Vexing - One Back Task,R,84.0,4.0,4.0,1623.6385,3
536,10,Vexing - One Back Task,I,263.0,3.0,3.0,1625.638,3
537,10,Vexing - One Back Task,V,251.0,3.0,3.0,1627.638,3
538,10,Vexing - One Back Task,R,656.0,3.0,3.0,1629.6374999999998,3
539,10,Vexing - One Back Task,P,257.0,3.0,3.0,1631.6374999999998,3
540,10,Vexing - One Back Task,A,287.0,3.0,3.0,1633.6370000000002,3
541,10,Vexing - One Back Task,C,174.0,3.0,3.0,1635.6370000000002,3
542,10,Vexing - One Back Task,V,269.0,4.0,3.0,1637.6365,3
543,10,Vexing - One Back Task,V,174.0,4.0,4.0,1639.6875,3
544,10,Vexing - One Back Task,I,10.0,3.0,3.0,1641.7530000000002,3
545,10,Vexing - One Back Task,L,94.0,3.0,3.0,1643.8359999999998,3
546,10,Vexing - One Back Task,U,365.0,3.0,3.0,1645.9205000000002,3
547,10,Vexing - One Back Task,D,105.0,3.0,3.0,1647.989,3
548,10,Vexing - One Back Task,P,119.0,3.0,3.0,1650.0684999999999,3
549,10,Vexing - One Back Task,Y,43.0,3.0,3.0,1652.1014999999998,3
550,11,Vexing - Three Back Task,C,0.0,3.0,,1669.1844999999998,3
551,11,Vexing - Three Back Task,B,0.0,3.0,,1671.232,3
552,11,Vexing - Three Back Task,Q,0.0,3.0,,1673.2820000000002,3
553,11,Vexing - Three Back Task,Z,325.0,3.0,3.0,1675.3314999999998,3
554,11,Vexing - Three Back Task,J,225.0,3.0,3.0,1677.3645000000001,3
555,11,Vexing - Three Back Task,Q,398.0,4.0,4.0,1679.3980000000001,3
556,11,Vexing - Three Back Task,B,1091.0,3.0,3.0,1681.431,3
557,11,Vexing - Three Back Task,F,673.0,3.0,3.0,1683.464,3
558,11,Vexing - Three Back Task,B,834.0,3.0,4.0,1685.4969999999998,3
559,11,Vexing - Three Back Task,M,237.0,3.0,3.0,1687.5300000000002,3
560,11,Vexing - Three Back Task,D,483.0,3.0,3.0,1689.5634999999997,3
561,11,Vexing - Three Back Task,Z,826.0,3.0,4.0,1691.6295,3
562,11,Vexing - Three Back Task,L,407.0,3.0,3.0,1693.714,3
563,11,Vexing - Three Back Task,O,139.0,3.0,3.0,1695.779,3
564,11,Vexing - Three Back Task,S,390.0,3.0,3.0,1697.8474999999999,3
565,11,Vexing - Three Back Task,A,597.0,3.0,4.0,1699.8960000000002,3
566,11,Vexing - Three Back Task,O,186.0,4.0,3.0,1701.9634999999998,3
567,11,Vexing - Three Back Task,Y,643.0,3.0,3.0,1704.029,3
568,11,Vexing - Three Back Task,A,307.0,4.0,4.0,1706.1125000000002,3
569,11,Vexing - Three Back Task,U,213.0,3.0,3.0,1708.212,3
570,11,Vexing - Three Back Task,Y,377.0,4.0,4.0,1710.2785,3
571,11,Vexing - Three Back Task,A,241.0,4.0,4.0,1712.3445000000002,3
572,12,Vexing - Three Back Task,W,0.0,3.0,,1729.458,3
573,12,Vexing - Three Back Task,Y,0.0,3.0,,1731.6255,3
574,12,Vexing - Three Back Task,E,0.0,3.0,,1733.8075,3
575,12,Vexing - Three Back Task,S,175.0,3.0,3.0,1735.9589999999998,3
576,12,Vexing - Three Back Task,Y,290.0,4.0,4.0,1738.042,3
577,12,Vexing - Three Back Task,E,530.0,4.0,4.0,1740.1245,3
578,12,Vexing - Three Back Task,G,310.0,3.0,3.0,1742.19,3
579,12,Vexing - Three Back Task,Q,241.0,3.0,3.0,1744.2579999999998,3
580,12,Vexing - Three Back Task,V,117.0,3.0,3.0,1746.3224999999998,3
581,12,Vexing - Three Back Task,W,122.0,3.0,3.0,1748.3890000000001,3
582,12,Vexing - Three Back Task,K,297.0,3.0,3.0,1750.4564999999998,3
583,12,Vexing - Three Back Task,D,306.0,3.0,3.0,1752.522,3
584,12,Vexing - Three Back Task,C,580.0,3.0,3.0,1754.589,3
585,12,Vexing - Three Back Task,U,385.0,3.0,3.0,1756.656,3
586,12,Vexing - Three Back Task,V,675.0,3.0,4.0,1758.721,3
587,12,Vexing - Three Back Task,A,203.0,3.0,3.0,1760.7875,3
588,12,Vexing - Three Back Task,U,311.0,4.0,3.0,1762.8384999999998,3
589,12,Vexing - Three Back Task,X,515.0,3.0,3.0,1764.9045,3
590,12,Vexing - Three Back Task,A,320.0,4.0,4.0,1766.9544999999998,3
591,12,Vexing - Three Back Task,U,724.0,3.0,4.0,1769.0205,3
592,12,Vexing - Three Back Task,X,547.0,4.0,4.0,1771.0524999999998,3
593,12,Vexing - Three Back Task,M,638.0,3.0,3.0,1773.0855000000001,3
594,13,Vexing - One Back Task,K,0.0,3.0,,1790.1515,3
595,13,Vexing - One Back Task,B,230.0,3.0,3.0,1792.2849999999999,3
596,13,Vexing - One Back Task,U,447.0,3.0,3.0,1794.3339999999998,3
597,13,Vexing - One Back Task,Q,325.0,3.0,3.0,1796.3835,3
598,13,Vexing - One Back Task,N,10.0,3.0,3.0,1798.4160000000002,3
599,13,Vexing - One Back Task,O,460.0,3.0,3.0,1800.4654999999998,3
600,13,Vexing - One Back Task,I,192.0,3.0,3.0,1802.533,3
601,13,Vexing - One Back Task,T,168.0,3.0,3.0,1804.583,3
602,13,Vexing - One Back Task,W,36.0,3.0,3.0,1806.649,3
603,13,Vexing - One Back Task,I,296.0,4.0,3.0,1808.699,3
604,13,Vexing - One Back Task,I,81.0,4.0,4.0,1810.7655,3
605,13,Vexing - One Back Task,U,282.0,3.0,3.0,1812.8325,3
606,13,Vexing - One Back Task,B,271.0,3.0,3.0,1814.8984999999998,3
607,13,Vexing - One Back Task,K,20.0,3.0,3.0,1816.9299999999998,3
608,13,Vexing - One Back Task,Z,105.0,3.0,3.0,1818.9630000000002,3
609,13,Vexing - One Back Task,I,236.0,3.0,3.0,1821.0144999999998,3
610,13,Vexing - One Back Task,I,203.0,4.0,4.0,1823.063,3
611,13,Vexing - One Back Task,W,129.0,3.0,3.0,1825.13,3
612,13,Vexing - One Back Task,W,84.0,4.0,4.0,1827.2130000000002,3
613,13,Vexing - One Back Task,N,36.0,3.0,3.0,1829.2965,3
614,13,Vexing - One Back Task,N,112.0,4.0,4.0,1831.3625000000002,3
615,13,Vexing - One Back Task,T,332.0,3.0,3.0,1833.429,3
616,14,Vexing - Three Back Task,O,0.0,3.0,,1850.5430000000001,3
617,14,Vexing - Three Back Task,E,0.0,3.0,,1852.6765,3
618,14,Vexing - Three Back Task,X,0.0,3.0,,1854.8255,3
619,14,Vexing - Three Back Task,M,48.0,3.0,3.0,1856.942,3
620,14,Vexing - Three Back Task,I,218.0,3.0,3.0,1858.9915,3
621,14,Vexing - Three Back Task,P,116.0,3.0,3.0,1861.0590000000002,3
622,14,Vexing - Three Back Task,M,162.0,4.0,4.0,1863.0904999999998,3
623,14,Vexing - Three Back Task,U,589.0,3.0,3.0,1865.1585,3
624,14,Vexing - Three Back Task,D,269.0,3.0,3.0,1867.2105000000001,3
625,14,Vexing - Three Back Task,F,305.0,3.0,3.0,1869.2565,3
626,14,Vexing - Three Back Task,S,157.0,3.0,3.0,1871.3229999999999,3
627,14,Vexing - Three Back Task,D,110.0,4.0,4.0,1873.375,3
628,14,Vexing - Three Back Task,R,329.0,3.0,3.0,1875.406,3
629,14,Vexing - Three Back Task,Q,114.0,3.0,3.0,1877.4555,3
630,14,Vexing - Three Back Task,F,298.0,3.0,4.0,1879.5230000000001,3
631,14,Vexing - Three Back Task,A,262.0,3.0,3.0,1881.589,3
632,14,Vexing - Three Back Task,X,607.0,3.0,3.0,1883.623,3
633,14,Vexing - Three Back Task,F,284.0,3.0,4.0,1885.6554999999998,3
634,14,Vexing - Three Back Task,A,654.0,4.0,4.0,1887.7044999999998,3
635,14,Vexing - Three Back Task,X,340.0,4.0,4.0,1889.7375000000002,3
636,14,Vexing - Three Back Task,Y,153.0,3.0,3.0,1891.7869999999998,3
637,14,Vexing - Three Back Task,A,329.0,4.0,4.0,1893.8215,3
638,15,Vexing - One Back Task,F,0.0,3.0,,1910.9015,3
639,15,Vexing - One Back Task,F,7.0,4.0,4.0,1913.036,3
640,15,Vexing - One Back Task,F,0.0,4.0,,1915.1185,3
641,15,Vexing - One Back Task,N,148.0,3.0,3.0,1917.284,3
642,15,Vexing - One Back Task,V,192.0,3.0,3.0,1919.3519999999999,3
643,15,Vexing - One Back Task,J,22.0,3.0,3.0,1921.4175,3
644,15,Vexing - One Back Task,O,426.0,3.0,3.0,1923.4834999999998,3
645,15,Vexing - One Back Task,S,270.0,3.0,3.0,1925.6174999999998,3
646,15,Vexing - One Back Task,F,218.0,3.0,3.0,1927.7154999999998,3
647,15,Vexing - One Back Task,A,82.0,3.0,3.0,1929.784,3
648,15,Vexing - One Back Task,A,403.0,4.0,3.0,1931.8505,3
649,15,Vexing - One Back Task,N,279.0,3.0,3.0,1933.915,3
650,15,Vexing - One Back Task,O,281.0,3.0,3.0,1935.9825,3
651,15,Vexing - One Back Task,A,353.0,3.0,3.0,1938.0484999999999,3
652,15,Vexing - One Back Task,X,78.0,3.0,3.0,1940.1304999999998,3
653,15,Vexing - One Back Task,U,96.0,3.0,3.0,1942.216,3
654,15,Vexing - One Back Task,U,18.0,4.0,4.0,1944.2975000000001,3
655,15,Vexing - One Back Task,D,25.0,3.0,3.0,1946.364,3
656,15,Vexing - One Back Task,D,46.0,4.0,4.0,1948.4305,3
657,15,Vexing - One Back Task,J,692.0,3.0,3.0,1950.5300000000002,3
658,15,Vexing - One Back Task,Q,225.0,3.0,3.0,1952.6304999999998,3
659,15,Vexing - One Back Task,Y,164.0,3.0,3.0,1954.696,3
660,16,Vexing - Three Back Task,J,558.0,2.0,3.0,1971.8105,3
661,16,Vexing - Three Back Task,H,0.0,2.0,,1973.8775,3
662,16,Vexing - Three Back Task,G,0.0,2.0,,1976.0275000000001,3
663,16,Vexing - Three Back Task,A,503.0,2.0,3.0,1978.1934999999999,3
664,16,Vexing - Three Back Task,B,667.0,2.0,3.0,1980.2595000000001,3
665,16,Vexing - Three Back Task,B,555.0,1.0,3.0,1982.31,3
666,16,Vexing - Three Back Task,C,508.0,2.0,3.0,1984.3595,3
667,16,Vexing - Three Back Task,J,432.0,2.0,4.0,1986.426,3
668,16,Vexing - Three Back Task,H,615.0,2.0,3.0,1988.509,3
669,16,Vexing - Three Back Task,G,293.0,2.0,3.0,1990.574,3
670,16,Vexing - Three Back Task,G,739.0,1.0,3.0,1992.641,3
671,16,Vexing - Three Back Task,H,1436.0,2.0,3.0,1994.6909999999998,3
672,16,Vexing - Three Back Task,J,1004.0,2.0,3.0,1996.774,3
673,16,Vexing - Three Back Task,A,544.0,2.0,3.0,1998.8415,3
674,16,Vexing - Three Back Task,J,429.0,2.0,4.0,2000.9065,3
675,16,Vexing - Three Back Task,J,487.0,1.0,3.0,2002.9575,3
676,16,Vexing - Three Back Task,G,387.0,2.0,4.0,2005.0225,3
677,16,Vexing - Three Back Task,H,338.0,2.0,4.0,2007.056,3
678,16,Vexing - Three Back Task,H,403.0,1.0,3.0,2009.1225,3
679,16,Vexing - Three Back Task,I,601.0,2.0,3.0,2011.2060000000001,3
680,16,Vexing - Three Back Task,I,930.0,1.0,3.0,2013.2725,3
681,16,Vexing - Three Back Task,A,1461.0,2.0,3.0,2015.355,3
682,17,Vexing - One Back Task,B,0.0,3.0,,2032.4360000000001,3
683,17,Vexing - One Back Task,B,359.0,4.0,4.0,2034.5695,3
684,17,Vexing - One Back Task,U,24.0,3.0,3.0,2036.6349999999998,3
685,17,Vexing - One Back Task,F,133.0,3.0,3.0,2038.7024999999999,3
686,17,Vexing - One Back Task,F,165.0,4.0,4.0,2040.7525,3
687,17,Vexing - One Back Task,T,91.0,3.0,3.0,2042.801,3
688,17,Vexing - One Back Task,T,48.0,4.0,4.0,2044.8505,3
689,17,Vexing - One Back Task,O,124.0,3.0,3.0,2046.9009999999998,3
690,17,Vexing - One Back Task,R,261.0,3.0,3.0,2048.9665,3
691,17,Vexing - One Back Task,Q,204.0,3.0,3.0,2051.0165,3
692,17,Vexing - One Back Task,X,7.0,3.0,3.0,2053.066,3
693,17,Vexing - One Back Task,X,690.0,4.0,4.0,2055.1175,3
694,17,Vexing - One Back Task,R,369.0,3.0,3.0,2057.1675,3
695,17,Vexing - One Back Task,S,275.0,3.0,3.0,2059.1985,3
696,17,Vexing - One Back Task,S,565.0,4.0,4.0,2061.2655,3
697,17,Vexing - One Back Task,L,612.0,3.0,3.0,2063.349,3
698,17,Vexing - One Back Task,Q,241.0,3.0,3.0,2065.4335,3
699,17,Vexing - One Back Task,R,262.0,3.0,3.0,2067.499,3
700,17,Vexing - One Back Task,B,196.0,3.0,3.0,2069.5815,3
701,17,Vexing - One Back Task,F,332.0,3.0,3.0,2071.6655,3
702,17,Vexing - One Back Task,E,0.0,3.0,,2073.7309999999998,3
703,17,Vexing - One Back Task,'Y',1199.0,3.0,3.0,2075.7965,3
704,1,Calming - One Back Task,L,0.0,3.0,,0.0,4
705,1,Calming - One Back Task,A,838.0,3.0,3.0,2.0154999999999745,4
706,1,Calming - One Back Task,E,374.0,3.0,3.0,4.0150000000001,4
707,1,Calming - One Back Task,E,405.0,4.0,4.0,6.0150000000001,4
708,1,Calming - One Back Task,E,39.0,4.0,4.0,8.014499999999998,4
709,1,Calming - One Back Task,O,190.0,3.0,3.0,10.014499999999998,4
710,1,Calming - One Back Task,A,272.0,4.0,4.0,12.048000000000002,4
711,1,Calming - One Back Task,A,486.0,4.0,3.0,14.081000000000131,4
712,1,Calming - One Back Task,H,165.0,3.0,4.0,16.114500000000135,4
713,1,Calming - One Back Task,J,310.0,3.0,3.0,18.147000000000162,4
714,1,Calming - One Back Task,D,443.0,3.0,3.0,20.180500000000166,4
715,1,Calming - One Back Task,B,184.0,3.0,3.0,22.212999999999965,4
716,1,Calming - One Back Task,L,95.0,3.0,3.0,24.24700000000007,4
717,1,Calming - One Back Task,V,86.0,3.0,3.0,26.279999999999973,4
718,1,Calming - One Back Task,V,92.0,4.0,4.0,28.330000000000155,4
719,1,Calming - One Back Task,N,42.0,3.0,3.0,30.395999999999958,4
720,1,Calming - One Back Task,V,94.0,3.0,3.0,32.462999999999965,4
721,1,Calming - One Back Task,L,378.0,3.0,3.0,34.51150000000007,4
722,1,Calming - One Back Task,A,162.0,3.0,3.0,36.54449999999997,4
723,1,Calming - One Back Task,E,444.0,3.0,3.0,38.577999999999975,4
724,1,Calming - One Back Task,J,310.0,3.0,3.0,40.627500000000055,4
725,1,Calming - One Back Task,S,442.0,3.0,3.0,42.660499999999956,4
726,2,Calming - Three Back Task,P,0.0,3.0,,59.70900000000006,4
727,2,Calming - Three Back Task,F,0.0,3.0,,61.825000000000045,4
728,2,Calming - Three Back Task,Q,0.0,3.0,,63.94150000000013,4
729,2,Calming - Three Back Task,C,225.0,3.0,3.0,66.07400000000007,4
730,2,Calming - Three Back Task,N,377.0,3.0,3.0,68.14100000000008,4
731,2,Calming - Three Back Task,P,1182.0,3.0,3.0,70.19000000000005,4
732,2,Calming - Three Back Task,C,1073.0,4.0,3.0,72.25649999999996,4
733,2,Calming - Three Back Task,N,414.0,3.0,4.0,74.34050000000002,4
734,2,Calming - Three Back Task,P,913.0,4.0,3.0,76.40600000000018,4
735,2,Calming - Three Back Task,C,677.0,4.0,4.0,78.47250000000008,4
736,2,Calming - Three Back Task,N,691.0,4.0,3.0,80.53850000000011,4
737,2,Calming - Three Back Task,V,565.0,3.0,3.0,82.57150000000001,4
738,2,Calming - Three Back Task,Q,762.0,3.0,3.0,84.60450000000014,4
739,2,Calming - Three Back Task,M,499.0,3.0,3.0,86.63750000000005,4
740,2,Calming - Three Back Task,H,271.0,3.0,3.0,88.67050000000017,4
741,2,Calming - Three Back Task,Q,969.0,4.0,4.0,90.721,4
742,2,Calming - Three Back Task,X,410.0,3.0,3.0,92.77050000000008,4
743,2,Calming - Three Back Task,N,957.0,3.0,4.0,94.82000000000016,4
744,2,Calming - Three Back Task,Z,266.0,3.0,3.0,96.88650000000007,4
745,2,Calming - Three Back Task,F,867.0,3.0,3.0,98.93600000000015,4
746,2,Calming - Three Back Task,C,523.0,3.0,4.0,101.00300000000016,4
747,2,Calming - Three Back Task,H,1167.0,3.0,4.0,103.05250000000001,4
748,3,Calming - Three Back Task,D,0.0,3.0,,120.13400000000001,4
749,3,Calming - Three Back Task,X,0.0,3.0,,122.2505000000001,4
750,3,Calming - Three Back Task,M,0.0,3.0,,124.31650000000013,4
751,3,Calming - Three Back Task,I,219.0,3.0,3.0,126.43299999999999,4
752,3,Calming - Three Back Task,X,14.0,3.0,4.0,128.51650000000018,4
753,3,Calming - Three Back Task,M,827.0,4.0,4.0,130.60000000000014,4
754,3,Calming - Three Back Task,P,295.0,3.0,3.0,132.69950000000017,4
755,3,Calming - Three Back Task,S,272.0,3.0,4.0,134.78250000000003,4
756,3,Calming - Three Back Task,A,291.0,3.0,3.0,136.8655000000001,4
757,3,Calming - Three Back Task,N,970.0,3.0,4.0,138.94849999999997,4
758,3,Calming - Three Back Task,W,290.0,3.0,3.0,141.0150000000001,4
759,3,Calming - Three Back Task,V,350.0,3.0,3.0,143.08100000000013,4
760,3,Calming - Three Back Task,A,281.0,3.0,4.0,145.13049999999998,4
761,3,Calming - Three Back Task,W,446.0,4.0,4.0,147.18000000000006,4
762,3,Calming - Three Back Task,B,177.0,3.0,3.0,149.23000000000002,4
763,3,Calming - Three Back Task,A,536.0,4.0,4.0,151.26300000000015,4
764,3,Calming - Three Back Task,Y,158.0,3.0,3.0,153.3125,4
765,3,Calming - Three Back Task,B,353.0,4.0,4.0,155.346,4
766,3,Calming - Three Back Task,A,0.0,4.0,,157.37900000000013,4
767,3,Calming - Three Back Task,R,254.0,3.0,3.0,159.462,4
768,3,Calming - Three Back Task,P,176.0,3.0,3.0,161.279,4
769,3,Calming - Three Back Task,C,1078.0,3.0,3.0,163.31349999999998,4
770,4,Calming - One Back Task,V,0.0,3.0,,180.37650000000008,4
771,4,Calming - One Back Task,I,1484.0,3.0,3.0,182.52650000000017,4
772,4,Calming - One Back Task,Q,342.0,3.0,3.0,184.625,4
773,4,Calming - One Back Task,H,592.0,3.0,3.0,186.6590000000001,4
774,4,Calming - One Back Task,C,305.0,3.0,3.0,188.70849999999996,4
775,4,Calming - One Back Task,N,963.0,3.0,3.0,190.75800000000004,4
776,4,Calming - One Back Task,V,389.0,3.0,3.0,192.79150000000004,4
777,4,Calming - One Back Task,Y,293.0,3.0,3.0,194.84050000000002,4
778,4,Calming - One Back Task,Y,426.0,4.0,3.0,196.87450000000013,4
779,4,Calming - One Back Task,K,281.0,3.0,3.0,198.89049999999997,4
780,4,Calming - One Back Task,K,58.0,4.0,4.0,200.9235000000001,4
781,4,Calming - One Back Task,I,234.0,3.0,3.0,202.95600000000013,4
782,4,Calming - One Back Task,I,372.0,4.0,4.0,204.98950000000013,4
783,4,Calming - One Back Task,O,89.0,3.0,3.0,206.97250000000008,4
784,4,Calming - One Back Task,E,434.0,3.0,3.0,209.00549999999998,4
785,4,Calming - One Back Task,D,471.0,3.0,3.0,211.0385000000001,4
786,4,Calming - One Back Task,V,101.0,3.0,3.0,213.10550000000012,4
787,4,Calming - One Back Task,V,95.0,4.0,4.0,215.13850000000002,4
788,4,Calming - One Back Task,N,98.0,3.0,3.0,217.17100000000005,4
789,4,Calming - One Back Task,N,273.0,4.0,4.0,219.20450000000005,4
790,4,Calming - One Back Task,D,124.0,3.0,3.0,221.23750000000018,4
791,4,Calming - One Back Task,W,431.0,3.0,3.0,223.288,4
792,5,Calming - Three Back Task,C,0.0,3.0,,240.30100000000016,4
793,5,Calming - Three Back Task,B,0.0,3.0,,242.36800000000017,4
794,5,Calming - Three Back Task,Q,0.0,3.0,,244.45100000000002,4
795,5,Calming - Three Back Task,Y,754.0,3.0,4.0,246.55100000000016,4
796,5,Calming - Three Back Task,R,871.0,3.0,3.0,248.58349999999996,4
797,5,Calming - Three Back Task,I,379.0,3.0,3.0,250.63350000000014,4
798,5,Calming - Three Back Task,Y,919.0,4.0,4.0,252.66600000000017,4
799,5,Calming - Three Back Task,N,0.0,3.0,,254.69950000000017,4
800,5,Calming - Three Back Task,Y,193.0,3.0,4.0,256.7825,4
801,5,Calming - Three Back Task,X,748.0,3.0,3.0,258.56600000000003,4
802,5,Calming - Three Back Task,F,1110.0,3.0,4.0,260.6165000000001,4
803,5,Calming - Three Back Task,U,486.0,3.0,4.0,262.66550000000007,4
804,5,Calming - Three Back Task,H,795.0,4.0,4.0,264.69849999999997,4
805,5,Calming - Three Back Task,U,710.0,3.0,3.0,266.7315000000001,4
806,5,Calming - Three Back Task,U,262.0,3.0,4.0,268.7640000000001,4
807,5,Calming - Three Back Task,H,345.0,4.0,3.0,270.798,4
808,5,Calming - Three Back Task,W,426.0,3.0,3.0,272.83100000000013,4
809,5,Calming - Three Back Task,U,270.0,4.0,4.0,274.86350000000016,4
810,5,Calming - Three Back Task,H,480.0,4.0,4.0,276.89750000000004,4
811,5,Calming - Three Back Task,F,359.0,3.0,4.0,278.93000000000006,4
812,5,Calming - Three Back Task,I,204.0,3.0,3.0,280.98,4
813,5,Calming - Three Back Task,V,824.0,3.0,4.0,283.0305000000001,4
814,6,Calming - One Back Task,U,0.0,3.0,,300.077,4
815,6,Calming - One Back Task,R,624.0,3.0,4.0,302.16049999999996,4
816,6,Calming - One Back Task,O,388.0,3.0,4.0,304.193,4
817,6,Calming - One Back Task,P,29.0,3.0,3.0,306.24250000000006,4
818,6,Calming - One Back Task,P,633.0,4.0,4.0,307.92600000000016,4
819,6,Calming - One Back Task,P,206.0,4.0,4.0,309.99300000000017,4
820,6,Calming - One Back Task,U,304.0,3.0,3.0,312.0585000000001,4
821,6,Calming - One Back Task,Z,0.0,3.0,,314.125,4
822,6,Calming - One Back Task,U,482.0,3.0,3.0,316.25850000000014,4
823,6,Calming - One Back Task,M,378.0,3.0,3.0,318.32400000000007,4
824,6,Calming - One Back Task,M,476.0,4.0,4.0,320.3745000000001,4
825,6,Calming - One Back Task,W,232.0,3.0,3.0,322.491,4
826,6,Calming - One Back Task,I,241.0,3.0,3.0,324.558,4
827,6,Calming - One Back Task,F,0.0,3.0,,326.6410000000001,4
828,6,Calming - One Back Task,M,0.0,3.0,,328.8410000000001,4
829,6,Calming - One Back Task,A,0.0,3.0,,331.04100000000017,4
830,6,Calming - One Back Task,G,453.0,3.0,3.0,333.24,4
831,6,Calming - One Back Task,G,81.0,4.0,4.0,335.3900000000001,4
832,6,Calming - One Back Task,R,361.0,3.0,3.0,337.48950000000013,4
833,6,Calming - One Back Task,Q,168.0,3.0,3.0,339.58900000000017,4
834,6,Calming - One Back Task,R,470.0,4.0,3.0,341.6725000000001,4
835,6,Calming - One Back Task,Q,0.0,3.0,,343.855,4
836,7,Calming - One Back Task,S,0.0,3.0,,361.00250000000005,4
837,7,Calming - One Back Task,R,753.0,3.0,3.0,363.08500000000004,4
838,7,Calming - One Back Task,V,17.0,3.0,3.0,365.15200000000004,4
839,7,Calming - One Back Task,V,465.0,4.0,4.0,367.2180000000001,4
840,7,Calming - One Back Task,O,156.0,3.0,3.0,369.30200000000013,4
841,7,Calming - One Back Task,A,200.0,3.0,3.0,371.33450000000016,4
842,7,Calming - One Back Task,C,372.0,3.0,3.0,373.384,4
843,7,Calming - One Back Task,N,465.0,3.0,3.0,375.384,4
844,7,Calming - One Back Task,Y,448.0,3.0,3.0,377.5345,4
845,7,Calming - One Back Task,V,402.0,3.0,3.0,379.6165000000001,4
846,7,Calming - One Back Task,V,161.0,4.0,4.0,381.616,4
847,7,Calming - One Back Task,J,185.0,3.0,3.0,383.6500000000001,4
848,7,Calming - One Back Task,U,33.0,3.0,3.0,385.69900000000007,4
849,7,Calming - One Back Task,U,17.0,4.0,4.0,387.7325000000001,4
850,7,Calming - One Back Task,U,31.0,4.0,4.0,389.78200000000015,4
851,7,Calming - One Back Task,Y,465.0,3.0,3.0,391.84900000000016,4
852,7,Calming - One Back Task,Y,452.0,4.0,4.0,393.93100000000004,4
853,7,Calming - One Back Task,J,251.0,3.0,3.0,396.0310000000002,4
854,7,Calming - One Back Task,I,154.0,3.0,3.0,398.09850000000006,4
855,7,Calming - One Back Task,S,240.0,3.0,3.0,400.19849999999997,4
856,7,Calming - One Back Task,U,447.0,3.0,3.0,402.2475000000002,4
857,7,Calming - One Back Task,P,428.0,3.0,3.0,404.297,4
858,8,Calming - Three Back Task,L,0.0,3.0,,421.328,4
859,8,Calming - Three Back Task,A,0.0,3.0,,423.4275,4
860,8,Calming - Three Back Task,P,0.0,3.0,,425.5105000000001,4
861,8,Calming - Three Back Task,L,303.0,4.0,4.0,427.5935000000002,4
862,8,Calming - Three Back Task,A,213.0,4.0,4.0,429.6270000000002,4
863,8,Calming - Three Back Task,N,151.0,3.0,3.0,431.67650000000003,4
864,8,Calming - Three Back Task,W,431.0,3.0,3.0,433.70950000000016,4
865,8,Calming - Three Back Task,C,211.0,3.0,3.0,435.74250000000006,4
866,8,Calming - Three Back Task,L,472.0,3.0,4.0,437.77600000000007,4
867,8,Calming - Three Back Task,W,955.0,4.0,4.0,439.8430000000001,4
868,8,Calming - Three Back Task,U,202.0,3.0,3.0,441.90800000000013,4
869,8,Calming - Three Back Task,S,432.0,3.0,3.0,443.9760000000001,4
870,8,Calming - Three Back Task,W,317.0,4.0,4.0,446.0250000000001,4
871,8,Calming - Three Back Task,Y,602.0,3.0,4.0,448.0585000000001,4
872,8,Calming - Three Back Task,F,295.0,3.0,3.0,450.0905,4
873,8,Calming - Three Back Task,L,376.0,3.0,4.0,452.1245000000001,4
874,8,Calming - Three Back Task,Y,381.0,4.0,4.0,454.174,4
875,8,Calming - Three Back Task,U,353.0,3.0,3.0,456.22350000000006,4
876,8,Calming - Three Back Task,L,236.0,3.0,4.0,458.25700000000006,4
877,8,Calming - Three Back Task,I,345.0,3.0,3.0,460.2895000000001,4
878,8,Calming - Three Back Task,B,685.0,3.0,3.0,462.3225,4
879,8,Calming - Three Back Task,T,364.0,3.0,3.0,464.374,4
880,10,Calming - Three Back Task,E,0.0,3.0,,496.4850000000001,4
881,10,Calming - Three Back Task,G,0.0,3.0,,498.5675000000001,4
882,10,Calming - Three Back Task,S,0.0,3.0,,500.634,4
883,10,Calming - Three Back Task,J,2.0,3.0,3.0,502.7175,4
884,10,Calming - Three Back Task,Z,109.0,3.0,3.0,504.75,4
885,10,Calming - Three Back Task,Q,118.0,3.0,3.0,506.7835,4
886,10,Calming - Three Back Task,W,165.0,3.0,3.0,508.81650000000013,4
887,10,Calming - Three Back Task,K,674.0,3.0,3.0,510.84950000000003,4
888,10,Calming - Three Back Task,Q,1200.0,3.0,4.0,512.8825000000002,4
889,10,Calming - Three Back Task,S,458.0,3.0,3.0,514.9155000000001,4
890,10,Calming - Three Back Task,M,389.0,3.0,3.0,516.9655,4
891,10,Calming - Three Back Task,Q,1190.0,3.0,4.0,518.998,4
892,10,Calming - Three Back Task,S,1232.0,4.0,4.0,521.0310000000002,4
893,10,Calming - Three Back Task,F,984.0,4.0,3.0,523.0645000000002,4
894,10,Calming - Three Back Task,Q,342.0,4.0,4.0,525.115,4
895,10,Calming - Three Back Task,X,255.0,3.0,3.0,527.1815000000001,4
896,10,Calming - Three Back Task,F,702.0,4.0,4.0,529.2485000000001,4
897,10,Calming - Three Back Task,K,0.0,3.0,,531.315,4
898,10,Calming - Three Back Task,X,608.0,3.0,4.0,533.4640000000002,4
899,10,Calming - Three Back Task,K,372.0,3.0,3.0,535.5305000000001,4
900,10,Calming - Three Back Task,R,452.0,3.0,3.0,537.597,4
901,10,Calming - Three Back Task,X,557.0,4.0,4.0,539.6465000000001,4
902,11,Calming - One Back Task,B,0.0,3.0,,556.694,4
903,11,Calming - One Back Task,B,29.0,4.0,4.0,558.8770000000002,4
904,11,Calming - One Back Task,V,34.0,3.0,3.0,560.9265,4
905,11,Calming - One Back Task,P,431.0,3.0,3.0,562.9590000000001,4
906,11,Calming - One Back Task,P,471.0,4.0,4.0,565.0260000000001,4
907,11,Calming - One Back Task,Q,367.0,3.0,3.0,567.1255000000001,4
908,11,Calming - One Back Task,E,112.0,3.0,4.0,569.1255000000001,4
909,11,Calming - One Back Task,E,408.0,4.0,4.0,571.1915000000001,4
910,11,Calming - One Back Task,M,417.0,3.0,3.0,573.2250000000001,4
911,11,Calming - One Back Task,M,438.0,4.0,4.0,575.2745,4
912,11,Calming - One Back Task,M,6.0,4.0,4.0,577.3405,4
913,11,Calming - One Back Task,T,242.0,3.0,3.0,579.4080000000001,4
914,11,Calming - One Back Task,E,472.0,3.0,3.0,581.4735000000001,4
915,11,Calming - One Back Task,R,453.0,3.0,3.0,583.5735,4
916,11,Calming - One Back Task,X,23.0,3.0,3.0,585.6565,4
917,11,Calming - One Back Task,E,110.0,3.0,3.0,587.723,4
918,11,Calming - One Back Task,L,107.0,3.0,3.0,589.789,4
919,11,Calming - One Back Task,B,134.0,3.0,3.0,591.8390000000002,4
920,11,Calming - One Back Task,R,308.0,3.0,3.0,593.905,4
921,11,Calming - One Back Task,W,425.0,3.0,3.0,595.972,4
922,11,Calming - One Back Task,W,362.0,4.0,4.0,598.0550000000001,4
923,11,Calming - One Back Task,I,304.0,3.0,3.0,600.0550000000001,4
924,12,Calming - One Back Task,I,0.0,3.0,,617.153,4
925,12,Calming - One Back Task,T,0.0,3.0,,619.3195000000001,4
926,12,Calming - One Back Task,H,62.0,3.0,3.0,621.4345000000001,4
927,12,Calming - One Back Task,H,459.0,4.0,4.0,623.4845,4
928,12,Calming - One Back Task,Y,37.0,3.0,3.0,625.5840000000001,4
929,12,Calming - One Back Task,G,443.0,3.0,3.0,627.6510000000001,4
930,12,Calming - One Back Task,G,76.0,4.0,4.0,629.7345,4
931,12,Calming - One Back Task,G,4.0,4.0,4.0,631.8000000000002,4
932,12,Calming - One Back Task,Y,21.0,3.0,3.0,633.8675000000001,4
933,12,Calming - One Back Task,W,57.0,3.0,3.0,635.9170000000001,4
934,12,Calming - One Back Task,W,402.0,4.0,4.0,638.0005000000001,4
935,12,Calming - One Back Task,U,191.0,3.0,3.0,640.049,4
936,12,Calming - One Back Task,A,454.0,3.0,3.0,642.0995,4
937,12,Calming - One Back Task,U,404.0,3.0,3.0,644.1655000000001,4
938,12,Calming - One Back Task,R,488.0,3.0,3.0,646.1990000000001,4
939,12,Calming - One Back Task,W,372.0,3.0,3.0,648.315,4
940,12,Calming - One Back Task,P,166.0,3.0,3.0,650.298,4
941,12,Calming - One Back Task,Q,368.0,3.0,3.0,652.3645000000001,4
942,12,Calming - One Back Task,C,471.0,3.0,3.0,654.3980000000001,4
943,12,Calming - One Back Task,A,146.0,3.0,3.0,656.5145,4
944,12,Calming - One Back Task,A,444.0,4.0,4.0,658.5800000000002,4
945,12,Calming - One Back Task,L,171.0,3.0,3.0,660.6465000000001,4
946,13,Calming - Three Back Task,A,0.0,3.0,,677.711,4
947,13,Calming - Three Back Task,H,0.0,3.0,,679.827,4
948,13,Calming - Three Back Task,U,0.0,3.0,,681.9605000000001,4
949,13,Calming - Three Back Task,J,265.0,3.0,3.0,684.077,4
950,13,Calming - Three Back Task,V,342.0,3.0,3.0,686.1265000000001,4
951,13,Calming - Three Back Task,N,209.0,3.0,3.0,688.1760000000002,4
952,13,Calming - Three Back Task,J,428.0,3.0,4.0,690.2435,4
953,13,Calming - Three Back Task,V,486.0,4.0,4.0,692.3100000000002,4
954,13,Calming - Three Back Task,N,578.0,4.0,4.0,694.3590000000002,4
955,13,Calming - Three Back Task,U,567.0,3.0,3.0,696.4265,4
956,13,Calming - Three Back Task,V,988.0,4.0,4.0,698.4925000000001,4
957,13,Calming - Three Back Task,E,615.0,3.0,4.0,700.5595000000001,4
958,13,Calming - Three Back Task,D,224.0,3.0,3.0,702.642,4
959,13,Calming - Three Back Task,X,330.0,3.0,3.0,704.7250000000001,4
960,13,Calming - Three Back Task,Q,294.0,3.0,4.0,706.7415000000001,4
961,13,Calming - Three Back Task,O,304.0,3.0,3.0,708.8075000000001,4
962,13,Calming - Three Back Task,X,797.0,4.0,4.0,710.8755000000001,4
963,13,Calming - Three Back Task,N,179.0,3.0,4.0,712.9405000000002,4
964,13,Calming - Three Back Task,O,549.0,4.0,3.0,715.0065,4
965,13,Calming - Three Back Task,P,444.0,3.0,3.0,717.0900000000001,4
966,13,Calming - Three Back Task,T,291.0,3.0,3.0,719.1570000000002,4
967,13,Calming - Three Back Task,W,242.0,3.0,3.0,721.2225000000001,4
968,14,Calming - Three Back Task,X,0.0,3.0,,738.2865000000002,4
969,14,Calming - Three Back Task,K,0.0,3.0,,740.4195,4
970,14,Calming - Three Back Task,O,0.0,3.0,,742.5025,4
971,14,Calming - Three Back Task,X,457.0,4.0,4.0,744.586,4
972,14,Calming - Three Back Task,K,306.0,4.0,4.0,746.6190000000001,4
973,14,Calming - Three Back Task,J,311.0,3.0,3.0,748.6685,4
974,14,Calming - Three Back Task,M,233.0,3.0,3.0,750.7015000000001,4
975,14,Calming - Three Back Task,G,249.0,3.0,3.0,752.7345,4
976,14,Calming - Three Back Task,Y,86.0,3.0,3.0,754.7675000000002,4
977,14,Calming - Three Back Task,M,984.0,3.0,4.0,756.818,4
978,14,Calming - Three Back Task,K,708.0,3.0,4.0,758.885,4
979,14,Calming - Three Back Task,E,354.0,3.0,3.0,760.9175,4
980,14,Calming - Three Back Task,S,65.0,3.0,3.0,762.9505000000001,4
981,14,Calming - Three Back Task,K,500.0,4.0,3.0,764.9830000000002,4
982,14,Calming - Three Back Task,E,0.0,4.0,,767.0160000000001,4
983,14,Calming - Three Back Task,F,454.0,3.0,4.0,769.0985000000001,4
984,14,Calming - Three Back Task,P,579.0,3.0,3.0,771.1320000000001,4
985,14,Calming - Three Back Task,J,373.0,3.0,3.0,773.165,4
986,14,Calming - Three Back Task,F,279.0,4.0,4.0,775.2150000000001,4
987,14,Calming - Three Back Task,N,5.0,3.0,3.0,777.248,4
988,14,Calming - Three Back Task,L,169.0,3.0,3.0,779.2810000000002,4
989,14,Calming - Three Back Task,T,376.0,3.0,3.0,781.3140000000001,4
990,15,Calming - One Back Task,V,0.0,3.0,,798.396,4
991,15,Calming - One Back Task,J,0.0,3.0,,800.4950000000001,4
992,15,Calming - One Back Task,U,414.0,3.0,3.0,802.596,4
993,15,Calming - One Back Task,J,748.0,3.0,3.0,804.5610000000001,4
994,15,Calming - One Back Task,J,190.0,4.0,4.0,806.594,4
995,15,Calming - One Back Task,J,202.0,4.0,4.0,808.6275,4
996,15,Calming - One Back Task,K,494.0,3.0,3.0,810.6600000000001,4
997,15,Calming - One Back Task,K,34.0,3.0,4.0,812.7605000000001,4
998,15,Calming - One Back Task,F,461.0,3.0,3.0,814.7935,4
999,15,Calming - One Back Task,F,380.0,4.0,4.0,816.8765000000001,4
1000,15,Calming - One Back Task,M,447.0,3.0,3.0,818.8765000000001,4
1001,15,Calming - One Back Task,B,0.0,3.0,,820.9260000000002,4
1002,15,Calming - One Back Task,O,420.0,3.0,3.0,823.0260000000001,4
1003,15,Calming - One Back Task,B,168.0,3.0,3.0,825.058,4
1004,15,Calming - One Back Task,W,494.0,3.0,3.0,827.1255000000001,4
1005,15,Calming - One Back Task,Z,318.0,3.0,3.0,829.2240000000002,4
1006,15,Calming - One Back Task,Z,198.0,4.0,3.0,831.124,4
1007,15,Calming - One Back Task,Y,307.0,3.0,3.0,832.8735000000001,4
1008,15,Calming - One Back Task,Z,622.0,3.0,3.0,834.9070000000002,4
1009,15,Calming - One Back Task,E,463.0,3.0,3.0,836.94,4
1010,15,Calming - One Back Task,A,366.0,3.0,3.0,838.973,4
1011,15,Calming - One Back Task,A,225.0,4.0,4.0,840.9225000000001,4
1012,16,Calming - Three Back Task,J,0.0,3.0,,857.9705000000001,4
1013,16,Calming - Three Back Task,O,0.0,3.0,,860.037,4
1014,16,Calming - Three Back Task,X,0.0,3.0,,862.1035000000002,4
1015,16,Calming - Three Back Task,V,110.0,3.0,3.0,864.1695,4
1016,16,Calming - Three Back Task,X,26.0,3.0,4.0,866.2025000000001,4
1017,16,Calming - Three Back Task,Y,227.0,3.0,4.0,868.2355,4
1018,16,Calming - Three Back Task,G,369.0,3.0,3.0,870.2685000000001,4
1019,16,Calming - Three Back Task,A,287.0,3.0,4.0,872.2185000000002,4
1020,16,Calming - Three Back Task,C,697.0,3.0,3.0,874.085,4
1021,16,Calming - Three Back Task,G,874.0,4.0,3.0,876.1180000000002,4
1022,16,Calming - Three Back Task,O,1111.0,4.0,3.0,878.1510000000001,4
1023,16,Calming - Three Back Task,L,539.0,3.0,3.0,880.184,4
1024,16,Calming - Three Back Task,H,542.0,3.0,3.0,882.2170000000001,4
1025,16,Calming - Three Back Task,O,458.0,4.0,3.0,884.2505000000001,4
1026,16,Calming - Three Back Task,Y,1205.0,3.0,3.0,886.2665000000002,4
1027,16,Calming - Three Back Task,H,562.0,4.0,3.0,888.3000000000002,4
1028,16,Calming - Three Back Task,I,275.0,3.0,4.0,890.3330000000001,4
1029,16,Calming - Three Back Task,N,279.0,3.0,3.0,892.366,4
1030,16,Calming - Three Back Task,I,203.0,3.0,4.0,894.3989999999999,4
1031,16,Calming - Three Back Task,D,408.0,3.0,4.0,896.4320000000002,4
1032,16,Calming - Three Back Task,N,195.0,4.0,4.0,898.4650000000001,4
1033,16,Calming - Three Back Task,W,370.0,3.0,3.0,900.2314999999999,4
1034,17,Calming - One Back Task,I,0.0,3.0,,917.2795000000001,4
1035,17,Calming - One Back Task,T,100.0,3.0,3.0,919.346,4
1036,17,Calming - One Back Task,H,0.0,3.0,,921.3789999999999,4
1037,17,Calming - One Back Task,H,36.0,4.0,4.0,923.4450000000002,4
1038,17,Calming - One Back Task,Y,403.0,3.0,3.0,925.4785000000002,4
1039,17,Calming - One Back Task,G,226.0,3.0,3.0,927.5115000000001,4
1040,17,Calming - One Back Task,G,401.0,4.0,4.0,929.5445,4
1041,17,Calming - One Back Task,G,478.0,4.0,4.0,931.511,4
1042,17,Calming - One Back Task,Y,457.0,3.0,3.0,933.5770000000002,4
1043,17,Calming - One Back Task,W,428.0,3.0,3.0,935.6105000000002,4
1044,17,Calming - One Back Task,W,32.0,4.0,4.0,937.6100000000001,4
1045,17,Calming - One Back Task,U,23.0,3.0,3.0,939.643,4
1046,17,Calming - One Back Task,A,236.0,3.0,3.0,941.6759999999999,4
1047,17,Calming - One Back Task,U,404.0,3.0,3.0,943.7094999999999,4
1048,17,Calming - One Back Task,R,446.0,3.0,3.0,945.7425000000003,4
1049,17,Calming - One Back Task,W,475.0,3.0,3.0,947.7755000000002,4
1050,17,Calming - One Back Task,P,370.0,3.0,3.0,949.8085000000001,4
1051,17,Calming - One Back Task,Q,432.0,3.0,3.0,951.7415000000001,4
1052,17,Calming - One Back Task,C,414.0,3.0,3.0,953.7580000000003,4
1053,17,Calming - One Back Task,A,384.0,3.0,3.0,955.7575000000002,4
1054,17,Calming - One Back Task,A,377.0,4.0,4.0,957.7240000000002,4
1055,17,Calming - One Back Task,L,459.0,3.0,3.0,959.6570000000002,4
1056,1,Vexing - One Back Task,L,0.0,3.0,,1101.739,4
1057,1,Vexing - One Back Task,Q,750.0,3.0,3.0,1103.7885,4
1058,1,Vexing - One Back Task,U,431.0,3.0,3.0,1105.8215,4
1059,1,Vexing - One Back Task,O,416.0,3.0,3.0,1107.8215,4
1060,1,Vexing - One Back Task,U,356.0,3.0,3.0,1109.8045000000002,4
1061,1,Vexing - One Back Task,U,447.0,4.0,4.0,1111.721,4
1062,1,Vexing - One Back Task,H,471.0,3.0,3.0,1113.737,4
1063,1,Vexing - One Back Task,V,356.0,3.0,3.0,1115.7705,4
1064,1,Vexing - One Back Task,K,69.0,3.0,3.0,1117.6865000000003,4
1065,1,Vexing - One Back Task,K,491.0,4.0,4.0,1119.7195000000002,4
1066,1,Vexing - One Back Task,K,460.0,4.0,4.0,1121.7694999999999,4
1067,1,Vexing - One Back Task,B,30.0,3.0,3.0,1123.786,4
1068,1,Vexing - One Back Task,R,447.0,3.0,3.0,1125.819,4
1069,1,Vexing - One Back Task,F,314.0,4.0,3.0,1127.8355000000001,4
1070,1,Vexing - One Back Task,F,387.0,4.0,4.0,1129.7185,4
1071,1,Vexing - One Back Task,C,97.0,3.0,3.0,1131.6685000000002,4
1072,1,Vexing - One Back Task,G,430.0,3.0,3.0,1133.7015000000001,4
1073,1,Vexing - One Back Task,X,105.0,3.0,3.0,1135.701,4
1074,1,Vexing - One Back Task,F,253.0,3.0,3.0,1137.734,4
1075,1,Vexing - One Back Task,M,381.0,3.0,3.0,1139.5505000000003,4
1076,1,Vexing - One Back Task,X,72.0,3.0,3.0,1141.5005,4
1077,1,Vexing - One Back Task,F,404.0,3.0,3.0,1143.5335,4
1078,2,Vexing - Three Back Task,Z,0.0,3.0,,1160.5145000000002,4
1079,2,Vexing - Three Back Task,U,0.0,3.0,,1162.5639999999999,4
1080,2,Vexing - Three Back Task,F,0.0,3.0,,1164.614,4
1081,2,Vexing - Three Back Task,Z,498.0,3.0,4.0,1166.6635,4
1082,2,Vexing - Three Back Task,B,273.0,3.0,3.0,1168.7135000000003,4
1083,2,Vexing - Three Back Task,L,1225.0,3.0,3.0,1170.7465000000002,4
1084,2,Vexing - Three Back Task,K,393.0,3.0,3.0,1172.7795,4
1085,2,Vexing - Three Back Task,C,167.0,3.0,3.0,1174.8125,4
1086,2,Vexing - Three Back Task,L,423.0,3.0,4.0,1176.8455,4
1087,2,Vexing - Three Back Task,J,444.0,3.0,3.0,1178.879,4
1088,2,Vexing - Three Back Task,G,22.0,3.0,3.0,1180.9120000000003,4
1089,2,Vexing - Three Back Task,F,277.0,3.0,3.0,1182.9450000000002,4
1090,2,Vexing - Three Back Task,J,397.0,4.0,3.0,1184.978,4
1091,2,Vexing - Three Back Task,G,199.0,4.0,4.0,1187.011,4
1092,2,Vexing - Three Back Task,H,799.0,3.0,4.0,1189.0439999999999,4
1093,2,Vexing - Three Back Task,E,264.0,3.0,3.0,1191.0774999999999,4
1094,2,Vexing - Three Back Task,W,1250.0,3.0,3.0,1193.1105000000002,4
1095,2,Vexing - Three Back Task,N,0.0,3.0,,1195.1435000000001,4
1096,2,Vexing - Three Back Task,X,277.0,3.0,4.0,1197.2095,4
1097,2,Vexing - Three Back Task,W,202.0,4.0,3.0,1199.243,4
1098,2,Vexing - Three Back Task,N,473.0,4.0,4.0,1201.2760000000003,4
1099,2,Vexing - Three Back Task,X,343.0,4.0,4.0,1203.3090000000002,4
1100,3,Vexing - One Back Task,Y,0.0,3.0,,1220.357,4
1101,3,Vexing - One Back Task,E,161.0,3.0,3.0,1222.4234999999999,4
1102,3,Vexing - One Back Task,A,143.0,3.0,3.0,1224.4565000000002,4
1103,3,Vexing - One Back Task,A,387.0,4.0,4.0,1226.4895000000001,4
1104,3,Vexing - One Back Task,V,39.0,4.0,3.0,1228.4560000000001,4
1105,3,Vexing - One Back Task,X,394.0,4.0,3.0,1230.489,4
1106,3,Vexing - One Back Task,X,370.0,4.0,4.0,1232.4555,4
1107,3,Vexing - One Back Task,S,0.0,3.0,,1234.4050000000002,4
1108,3,Vexing - One Back Task,G,109.0,3.0,3.0,1236.4715,4
1109,3,Vexing - One Back Task,P,420.0,3.0,3.0,1238.5045,4
1110,3,Vexing - One Back Task,Y,379.0,3.0,3.0,1240.504,4
1111,3,Vexing - One Back Task,X,4.0,3.0,3.0,1242.4705,4
1112,3,Vexing - One Back Task,P,430.0,3.0,3.0,1244.504,4
1113,3,Vexing - One Back Task,U,380.0,3.0,3.0,1246.52,4
1114,3,Vexing - One Back Task,V,458.0,3.0,3.0,1248.4865,4
1115,3,Vexing - One Back Task,A,378.0,3.0,3.0,1250.5194999999999,4
1116,3,Vexing - One Back Task,A,498.0,4.0,4.0,1252.4859999999999,4
1117,3,Vexing - One Back Task,G,377.0,3.0,3.0,1254.5525000000002,4
1118,3,Vexing - One Back Task,L,471.0,3.0,3.0,1256.5190000000002,4
1119,3,Vexing - One Back Task,W,666.0,3.0,3.0,1258.5520000000001,4
1120,3,Vexing - One Back Task,B,26.0,3.0,3.0,1260.585,4
1121,3,Vexing - One Back Task,I,87.0,3.0,3.0,1262.618,4
1122,4,Vexing - Three Back Task,F,0.0,3.0,,1279.6660000000002,4
1123,4,Vexing - Three Back Task,O,0.0,3.0,,1281.732,4
1124,4,Vexing - Three Back Task,H,0.0,3.0,,1283.7984999999999,4
1125,4,Vexing - Three Back Task,W,0.0,3.0,,1285.8650000000002,4
1126,4,Vexing - Three Back Task,O,30.0,4.0,4.0,1287.9315000000001,4
1127,4,Vexing - Three Back Task,M,157.0,3.0,3.0,1289.9645,4
1128,4,Vexing - Three Back Task,L,340.0,3.0,4.0,1291.9975,4
1129,4,Vexing - Three Back Task,L,502.0,3.0,3.0,1294.031,4
1130,4,Vexing - Three Back Task,R,171.0,3.0,3.0,1296.0639999999999,4
1131,4,Vexing - Three Back Task,E,90.0,3.0,3.0,1298.0970000000002,4
1132,4,Vexing - Three Back Task,L,429.0,4.0,4.0,1300.13,4
1133,4,Vexing - Three Back Task,N,357.0,3.0,3.0,1302.1295,4
1134,4,Vexing - Three Back Task,J,201.0,3.0,3.0,1304.1460000000002,4
1135,4,Vexing - Three Back Task,M,132.0,3.0,4.0,1306.179,4
1136,4,Vexing - Three Back Task,Y,77.0,3.0,3.0,1308.212,4
1137,4,Vexing - Three Back Task,U,681.0,3.0,3.0,1310.2455,4
1138,4,Vexing - Three Back Task,S,125.0,3.0,3.0,1312.2785,4
1139,4,Vexing - Three Back Task,Y,202.0,4.0,4.0,1314.3115000000003,4
1140,4,Vexing - Three Back Task,M,83.0,3.0,3.0,1316.328,4
1141,4,Vexing - Three Back Task,S,228.0,4.0,4.0,1318.344,4
1142,4,Vexing - Three Back Task,Y,180.0,4.0,4.0,1320.3775,4
1143,4,Vexing - Three Back Task,N,94.0,3.0,4.0,1322.377,4
1144,5,Vexing - One Back Task,A,0.0,3.0,,1339.375,4
1145,5,Vexing - One Back Task,A,445.0,4.0,4.0,1341.408,4
1146,5,Vexing - One Back Task,D,394.0,3.0,3.0,1343.4245,4
1147,5,Vexing - One Back Task,M,305.0,3.0,3.0,1345.424,4
1148,5,Vexing - One Back Task,X,440.0,3.0,3.0,1347.324,4
1149,5,Vexing - One Back Task,H,359.0,3.0,3.0,1349.357,4
1150,5,Vexing - One Back Task,U,0.0,3.0,,1351.3065000000001,4
1151,5,Vexing - One Back Task,G,344.0,3.0,3.0,1353.4065,4
1152,5,Vexing - One Back Task,G,451.0,4.0,4.0,1355.3395,4
1153,5,Vexing - One Back Task,G,436.0,4.0,4.0,1357.3895000000002,4
1154,5,Vexing - One Back Task,C,145.0,3.0,3.0,1359.4054999999998,4
1155,5,Vexing - One Back Task,W,296.0,3.0,3.0,1361.4385000000002,4
1156,5,Vexing - One Back Task,Y,348.0,3.0,3.0,1363.3220000000001,4
1157,5,Vexing - One Back Task,Y,0.0,4.0,,1365.255,4
1158,5,Vexing - One Back Task,N,146.0,3.0,3.0,1367.3215,4
1159,5,Vexing - One Back Task,N,411.0,4.0,3.0,1369.3545,4
1160,5,Vexing - One Back Task,X,68.0,3.0,3.0,1371.3205000000003,4
1161,5,Vexing - One Back Task,M,387.0,3.0,3.0,1373.3535000000002,4
1162,5,Vexing - One Back Task,X,462.0,3.0,3.0,1375.3205000000003,4
1163,5,Vexing - One Back Task,A,364.0,3.0,3.0,1377.37,4
1164,5,Vexing - One Back Task,D,333.0,3.0,3.0,1379.3195,4
1165,5,Vexing - One Back Task,'T',0.0,3.0,,1381.3029999999999,4
1166,6,Vexing - Three Back Task,V,0.0,3.0,,1398.402,4
1167,6,Vexing - Three Back Task,D,0.0,3.0,,1400.601,4
1168,6,Vexing - Three Back Task,K,0.0,3.0,,1402.8165,4
1169,6,Vexing - Three Back Task,D,172.0,3.0,3.0,1404.9500000000003,4
1170,6,Vexing - Three Back Task,Z,238.0,3.0,3.0,1407.0505000000003,4
1171,6,Vexing - Three Back Task,J,476.0,3.0,3.0,1409.149,4
1172,6,Vexing - Three Back Task,G,606.0,3.0,3.0,1411.2490000000003,4
1173,6,Vexing - Three Back Task,Z,231.0,4.0,4.0,1413.3160000000003,4
1174,6,Vexing - Three Back Task,J,215.0,4.0,4.0,1415.382,4
1175,6,Vexing - Three Back Task,Q,235.0,3.0,3.0,1417.4650000000001,4
1176,6,Vexing - Three Back Task,B,88.0,3.0,3.0,1419.5480000000002,4
1177,6,Vexing - Three Back Task,Z,290.0,3.0,4.0,1421.6309999999999,4
1178,6,Vexing - Three Back Task,Q,405.0,4.0,4.0,1423.6975000000002,4
1179,6,Vexing - Three Back Task,B,113.0,4.0,4.0,1425.7815,4
1180,6,Vexing - Three Back Task,B,194.0,3.0,3.0,1427.8809999999999,4
1181,6,Vexing - Three Back Task,E,1327.0,3.0,4.0,1429.9465,4
1182,6,Vexing - Three Back Task,G,0.0,3.0,,1432.0135,4
1183,6,Vexing - Three Back Task,B,46.0,4.0,4.0,1434.1460000000002,4
1184,6,Vexing - Three Back Task,X,82.0,3.0,3.0,1436.23,4
1185,6,Vexing - Three Back Task,U,101.0,3.0,3.0,1438.3135000000002,4
1186,6,Vexing - Three Back Task,J,858.0,3.0,4.0,1440.395,4
1187,6,Vexing - Three Back Task,V,304.0,3.0,3.0,1442.4615,4
1188,7,Vexing - One Back Task,A,0.0,3.0,,1459.5430000000001,4
1189,7,Vexing - One Back Task,W,165.0,3.0,3.0,1461.6435000000001,4
1190,7,Vexing - One Back Task,X,438.0,3.0,3.0,1463.71,4
1191,7,Vexing - One Back Task,M,0.0,3.0,,1465.8250000000003,4
1192,7,Vexing - One Back Task,F,0.0,3.0,,1468.0590000000002,4
1193,7,Vexing - One Back Task,S,364.0,3.0,3.0,1470.226,4
1194,7,Vexing - One Back Task,E,462.0,3.0,3.0,1472.2745,4
1195,7,Vexing - One Back Task,E,367.0,4.0,4.0,1474.391,4
1196,7,Vexing - One Back Task,U,240.0,3.0,3.0,1476.4250000000002,4
1197,7,Vexing - One Back Task,Y,0.0,3.0,,1478.4900000000002,4
1198,7,Vexing - One Back Task,Y,474.0,4.0,4.0,1480.6245,4
1199,7,Vexing - One Back Task,Y,23.0,4.0,4.0,1482.8075,4
1200,7,Vexing - One Back Task,V,249.0,3.0,3.0,1484.8745,4
1201,7,Vexing - One Back Task,A,454.0,3.0,3.0,1486.94,4
1202,7,Vexing - One Back Task,A,0.0,4.0,,1489.04,4
1203,7,Vexing - One Back Task,G,110.0,3.0,3.0,1491.1885000000002,4
1204,7,Vexing - One Back Task,S,5.0,3.0,3.0,1493.2385,4
1205,7,Vexing - One Back Task,F,406.0,3.0,3.0,1495.3215,4
1206,7,Vexing - One Back Task,I,487.0,3.0,3.0,1497.371,4
1207,7,Vexing - One Back Task,B,0.0,3.0,,1499.522,4
1208,7,Vexing - One Back Task,B,431.0,4.0,4.0,1501.6705000000002,4
1209,7,Vexing - One Back Task,T,256.0,3.0,3.0,1503.757,4
1210,8,Vexing - Three Back Task,T,0.0,3.0,,1520.8365,4
1211,8,Vexing - Three Back Task,R,0.0,3.0,,1522.9520000000002,4
1212,8,Vexing - Three Back Task,A,0.0,3.0,,1525.0684999999999,4
1213,8,Vexing - Three Back Task,M,39.0,3.0,3.0,1527.201,4
1214,8,Vexing - Three Back Task,Z,418.0,3.0,3.0,1529.2849999999999,4
1215,8,Vexing - Three Back Task,C,333.0,3.0,3.0,1531.3519999999999,4
1216,8,Vexing - Three Back Task,M,508.0,3.0,4.0,1533.4,4
1217,8,Vexing - Three Back Task,O,169.0,3.0,3.0,1535.451,4
1218,8,Vexing - Three Back Task,P,626.0,3.0,3.0,1537.5165000000002,4
1219,8,Vexing - Three Back Task,M,209.0,4.0,4.0,1539.5660000000003,4
1220,8,Vexing - Three Back Task,O,138.0,4.0,4.0,1541.5990000000002,4
1221,8,Vexing - Three Back Task,O,265.0,3.0,3.0,1543.6485000000002,4
1222,8,Vexing - Three Back Task,B,121.0,3.0,3.0,1545.6995000000002,4
1223,8,Vexing - Three Back Task,H,727.0,3.0,3.0,1547.7490000000003,4
1224,8,Vexing - Three Back Task,Z,479.0,4.0,3.0,1549.7984999999999,4
1225,8,Vexing - Three Back Task,Q,235.0,3.0,3.0,1551.8474999999999,4
1226,8,Vexing - Three Back Task,Y,909.0,3.0,3.0,1553.8980000000001,4
1227,8,Vexing - Three Back Task,Z,425.0,4.0,4.0,1555.9645,4
1228,8,Vexing - Three Back Task,M,497.0,3.0,3.0,1558.0315,4
1229,8,Vexing - Three Back Task,R,439.0,3.0,3.0,1560.1640000000002,4
1230,8,Vexing - Three Back Task,P,0.0,3.0,,1562.246,4
1231,8,Vexing - Three Back Task,M,238.0,4.0,3.0,1564.3795,4
1232,10,Vexing - One Back Task,J,0.0,3.0,,1596.5260000000003,4
1233,10,Vexing - One Back Task,J,464.0,4.0,4.0,1598.6585,4
1234,10,Vexing - One Back Task,N,60.0,3.0,3.0,1600.7925,4
1235,10,Vexing - One Back Task,S,396.0,3.0,3.0,1602.8575,4
1236,10,Vexing - One Back Task,N,449.0,3.0,3.0,1604.942,4
1237,10,Vexing - One Back Task,N,424.0,4.0,4.0,1607.1245,4
1238,10,Vexing - One Back Task,R,405.0,3.0,3.0,1609.225,4
1239,10,Vexing - One Back Task,R,486.0,4.0,4.0,1611.3255,4
1240,10,Vexing - One Back Task,I,384.0,3.0,3.0,1613.4900000000002,4
1241,10,Vexing - One Back Task,V,353.0,3.0,3.0,1615.5735,4
1242,10,Vexing - One Back Task,R,64.0,3.0,3.0,1617.6055000000001,4
1243,10,Vexing - One Back Task,P,0.0,3.0,,1619.6895,4
1244,10,Vexing - One Back Task,A,385.0,3.0,3.0,1621.8225000000002,4
1245,10,Vexing - One Back Task,C,395.0,3.0,3.0,1623.873,4
1246,10,Vexing - One Back Task,V,346.0,4.0,3.0,1626.0055000000002,4
1247,10,Vexing - One Back Task,V,483.0,4.0,4.0,1628.0885000000003,4
1248,10,Vexing - One Back Task,I,0.0,3.0,,1630.2705,4
1249,10,Vexing - One Back Task,L,0.0,3.0,,1632.455,4
1250,10,Vexing - One Back Task,U,480.0,3.0,3.0,1634.6215000000002,4
1251,10,Vexing - One Back Task,D,28.0,3.0,3.0,1636.7195000000002,4
1252,10,Vexing - One Back Task,P,386.0,3.0,3.0,1638.7530000000002,4
1253,10,Vexing - One Back Task,Y,427.0,3.0,3.0,1640.719,4
1254,11,Vexing - Three Back Task,C,0.0,3.0,,1657.8020000000001,4
1255,11,Vexing - Three Back Task,B,0.0,3.0,,1659.9500000000003,4
1256,11,Vexing - Three Back Task,Q,0.0,3.0,,1662.1165,4
1257,11,Vexing - Three Back Task,Z,457.0,3.0,3.0,1664.283,4
1258,11,Vexing - Three Back Task,J,0.0,3.0,,1666.4165000000003,4
1259,11,Vexing - Three Back Task,Q,350.0,4.0,4.0,1668.5990000000002,4
1260,11,Vexing - Three Back Task,B,128.0,3.0,3.0,1670.683,4
1261,11,Vexing - Three Back Task,F,110.0,3.0,3.0,1672.7665000000002,4
1262,11,Vexing - Three Back Task,B,1061.0,3.0,3.0,1674.8315000000002,4
1263,11,Vexing - Three Back Task,M,523.0,3.0,4.0,1676.9315000000001,4
1264,11,Vexing - Three Back Task,D,404.0,3.0,3.0,1678.9990000000003,4
1265,11,Vexing - Three Back Task,Z,48.0,3.0,3.0,1681.0655000000002,4
1266,11,Vexing - Three Back Task,L,392.0,3.0,3.0,1683.147,4
1267,11,Vexing - Three Back Task,O,918.0,3.0,4.0,1685.2305000000001,4
1268,11,Vexing - Three Back Task,S,290.0,3.0,3.0,1687.2984999999999,4
1269,11,Vexing - Three Back Task,A,752.0,3.0,3.0,1689.3635,4
1270,11,Vexing - Three Back Task,O,126.0,4.0,4.0,1691.431,4
1271,11,Vexing - Three Back Task,Y,482.0,3.0,3.0,1693.5125000000003,4
1272,11,Vexing - Three Back Task,A,282.0,4.0,4.0,1695.6795000000002,4
1273,11,Vexing - Three Back Task,U,503.0,3.0,3.0,1697.7625000000003,4
1274,11,Vexing - Three Back Task,Y,321.0,4.0,4.0,1699.8455,4
1275,11,Vexing - Three Back Task,A,489.0,4.0,4.0,1701.9279999999999,4
1276,12,Vexing - Three Back Task,W,0.0,3.0,,1719.0594999999998,4
1277,12,Vexing - Three Back Task,Y,0.0,3.0,,1721.2269999999999,4
1278,12,Vexing - Three Back Task,E,0.0,3.0,,1723.3764999999999,4
1279,12,Vexing - Three Back Task,S,10.0,3.0,3.0,1725.542,4
1280,12,Vexing - Three Back Task,Y,251.0,4.0,4.0,1727.625,4
1281,12,Vexing - Three Back Task,E,32.0,4.0,4.0,1729.6930000000002,4
1282,12,Vexing - Three Back Task,G,431.0,3.0,3.0,1731.741,4
1283,12,Vexing - Three Back Task,Q,1144.0,3.0,3.0,1733.8085,4
1284,12,Vexing - Three Back Task,V,105.0,3.0,3.0,1735.8740000000003,4
1285,12,Vexing - Three Back Task,W,259.0,3.0,3.0,1737.9575,4
1286,12,Vexing - Three Back Task,K,1159.0,3.0,3.0,1740.0075000000002,4
1287,12,Vexing - Three Back Task,D,713.0,3.0,4.0,1742.0729999999999,4
1288,12,Vexing - Three Back Task,C,479.0,3.0,4.0,1744.1399999999999,4
1289,12,Vexing - Three Back Task,U,153.0,3.0,3.0,1746.2065000000002,4
1290,12,Vexing - Three Back Task,V,390.0,3.0,3.0,1748.2555000000002,4
1291,12,Vexing - Three Back Task,A,317.0,3.0,4.0,1750.3229999999999,4
1292,12,Vexing - Three Back Task,U,331.0,4.0,4.0,1752.406,4
1293,12,Vexing - Three Back Task,X,363.0,3.0,3.0,1754.489,4
1294,12,Vexing - Three Back Task,A,480.0,4.0,3.0,1756.5720000000001,4
1295,12,Vexing - Three Back Task,U,32.0,3.0,4.0,1758.772,4
1296,12,Vexing - Three Back Task,X,243.0,4.0,4.0,1760.8380000000002,4
1297,12,Vexing - Three Back Task,M,206.0,3.0,3.0,1762.8875000000003,4
1298,13,Vexing - One Back Task,K,0.0,3.0,,1780.0025,4
1299,13,Vexing - One Back Task,B,76.0,3.0,3.0,1782.1680000000001,4
1300,13,Vexing - One Back Task,U,480.0,3.0,3.0,1784.219,4
1301,13,Vexing - One Back Task,Q,302.0,3.0,3.0,1786.4010000000003,4
1302,13,Vexing - One Back Task,N,295.0,3.0,3.0,1788.368,4
1303,13,Vexing - One Back Task,O,6.0,3.0,3.0,1790.335,4
1304,13,Vexing - One Back Task,I,348.0,3.0,3.0,1792.4010000000003,4
1305,13,Vexing - One Back Task,T,372.0,3.0,3.0,1794.4160000000002,4
1306,13,Vexing - One Back Task,W,356.0,3.0,3.0,1796.4340000000002,4
1307,13,Vexing - One Back Task,I,292.0,4.0,3.0,1798.484,4
1308,13,Vexing - One Back Task,I,53.0,4.0,4.0,1800.4155,4
1309,13,Vexing - One Back Task,U,475.0,3.0,3.0,1802.4650000000001,4
1310,13,Vexing - One Back Task,B,385.0,3.0,3.0,1804.5995000000003,4
1311,13,Vexing - One Back Task,K,403.0,3.0,3.0,1806.6644999999999,4
1312,13,Vexing - One Back Task,Z,2.0,3.0,3.0,1808.748,4
1313,13,Vexing - One Back Task,I,332.0,3.0,3.0,1810.7804999999998,4
1314,13,Vexing - One Back Task,I,433.0,4.0,3.0,1812.7820000000002,4
1315,13,Vexing - One Back Task,W,236.0,3.0,3.0,1814.7980000000002,4
1316,13,Vexing - One Back Task,W,21.0,4.0,4.0,1816.8630000000003,4
1317,13,Vexing - One Back Task,N,494.0,3.0,3.0,1818.8965000000003,4
1318,13,Vexing - One Back Task,N,82.0,4.0,4.0,1820.9305,4
1319,13,Vexing - One Back Task,T,40.0,3.0,4.0,1822.9965000000002,4
1320,14,Vexing - Three Back Task,O,0.0,3.0,,1840.0445,4
1321,14,Vexing - Three Back Task,E,0.0,3.0,,1842.194,4
1322,14,Vexing - Three Back Task,X,0.0,3.0,,1844.344,4
1323,14,Vexing - Three Back Task,M,485.0,3.0,3.0,1846.4935,4
1324,14,Vexing - Three Back Task,I,177.0,3.0,3.0,1848.6109999999999,4
1325,14,Vexing - Three Back Task,P,761.0,3.0,3.0,1850.643,4
1326,14,Vexing - Three Back Task,M,382.0,4.0,4.0,1852.6934999999999,4
1327,14,Vexing - Three Back Task,U,596.0,3.0,3.0,1854.7425000000003,4
1328,14,Vexing - Three Back Task,D,367.0,3.0,3.0,1856.792,4
1329,14,Vexing - Three Back Task,F,221.0,3.0,3.0,1858.8245000000002,4
1330,14,Vexing - Three Back Task,S,0.0,3.0,,1860.891,4
1331,14,Vexing - Three Back Task,D,151.0,4.0,4.0,1863.109,4
1332,14,Vexing - Three Back Task,R,433.0,3.0,3.0,1865.208,4
1333,14,Vexing - Three Back Task,Q,315.0,3.0,4.0,1867.3250000000003,4
1334,14,Vexing - Three Back Task,F,51.0,3.0,3.0,1869.4245,4
1335,14,Vexing - Three Back Task,A,650.0,3.0,4.0,1871.5405,4
1336,14,Vexing - Three Back Task,X,806.0,3.0,4.0,1873.6405,4
1337,14,Vexing - Three Back Task,F,36.0,3.0,4.0,1875.7404999999999,4
1338,14,Vexing - Three Back Task,A,312.0,4.0,4.0,1877.8564999999999,4
1339,14,Vexing - Three Back Task,X,225.0,4.0,4.0,1879.9395,4
1340,14,Vexing - Three Back Task,Y,564.0,3.0,4.0,1882.0394999999999,4
1341,14,Vexing - Three Back Task,A,61.0,4.0,4.0,1884.1390000000001,4
1342,15,Vexing - One Back Task,F,0.0,3.0,,1901.254,4
1343,15,Vexing - One Back Task,F,461.0,4.0,4.0,1903.4865,4
1344,15,Vexing - One Back Task,F,187.0,4.0,4.0,1905.6695,4
1345,15,Vexing - One Back Task,N,15.0,3.0,3.0,1907.77,4
1346,15,Vexing - One Back Task,V,365.0,3.0,3.0,1909.8705,4
1347,15,Vexing - One Back Task,J,412.0,3.0,3.0,1911.9524999999999,4
1348,15,Vexing - One Back Task,O,349.0,3.0,3.0,1914.0855000000001,4
1349,15,Vexing - One Back Task,S,445.0,3.0,3.0,1916.0684999999999,4
1350,15,Vexing - One Back Task,F,291.0,3.0,3.0,1918.2175000000002,4
1351,15,Vexing - One Back Task,A,355.0,3.0,3.0,1920.201,4
1352,15,Vexing - One Back Task,A,429.0,4.0,4.0,1922.2675,4
1353,15,Vexing - One Back Task,N,89.0,3.0,3.0,1924.4005000000002,4
1354,15,Vexing - One Back Task,O,0.0,3.0,,1926.5005,4
1355,15,Vexing - One Back Task,A,149.0,3.0,3.0,1928.6995000000002,4
1356,15,Vexing - One Back Task,X,417.0,3.0,3.0,1930.7820000000002,4
1357,15,Vexing - One Back Task,U,369.0,3.0,3.0,1932.8670000000002,4
1358,15,Vexing - One Back Task,U,168.0,4.0,4.0,1934.9165000000003,4
1359,15,Vexing - One Back Task,D,344.0,3.0,3.0,1936.9990000000003,4
1360,15,Vexing - One Back Task,D,470.0,4.0,3.0,1939.0155,4
1361,15,Vexing - One Back Task,J,178.0,3.0,3.0,1941.0805,4
1362,15,Vexing - One Back Task,Q,33.0,3.0,3.0,1943.1805,4
1363,15,Vexing - One Back Task,Y,0.0,3.0,,1945.2465000000002,4
1364,16,Vexing - Three Back Task,J,0.0,2.0,,1962.3775,4
1365,16,Vexing - Three Back Task,H,0.0,2.0,,1964.5439999999999,4
1366,16,Vexing - Three Back Task,G,0.0,2.0,,1966.694,4
1367,16,Vexing - Three Back Task,A,0.0,2.0,,1968.8450000000003,4
1368,16,Vexing - Three Back Task,B,45.0,2.0,3.0,1970.9945000000002,4
1369,16,Vexing - Three Back Task,B,179.0,1.0,4.0,1973.0439999999999,4
1370,16,Vexing - Three Back Task,C,0.0,2.0,,1975.0935,4
1371,16,Vexing - Three Back Task,J,150.0,2.0,3.0,1977.226,4
1372,16,Vexing - Three Back Task,H,129.0,2.0,3.0,1978.9935,4
1373,16,Vexing - Three Back Task,G,780.0,2.0,3.0,1981.0594999999998,4
1374,16,Vexing - Three Back Task,G,192.0,1.0,4.0,1983.159,4
1375,16,Vexing - Three Back Task,H,425.0,2.0,4.0,1985.2415,4
1376,16,Vexing - Three Back Task,J,149.0,2.0,3.0,1987.3265000000001,4
1377,16,Vexing - Three Back Task,A,85.0,2.0,3.0,1989.3915000000002,4
1378,16,Vexing - Three Back Task,J,683.0,2.0,4.0,1991.4740000000002,4
1379,16,Vexing - Three Back Task,J,1090.0,1.0,3.0,1993.5415000000003,4
1380,16,Vexing - Three Back Task,G,299.0,2.0,4.0,1995.625,4
1381,16,Vexing - Three Back Task,H,422.0,2.0,4.0,1997.6905000000002,4
1382,16,Vexing - Three Back Task,H,237.0,1.0,3.0,1999.7565,4
1383,16,Vexing - Three Back Task,I,330.0,2.0,3.0,2001.656,4
1384,16,Vexing - Three Back Task,I,326.0,1.0,3.0,2003.6565,4
1385,16,Vexing - Three Back Task,A,310.0,2.0,3.0,2005.6405,4
1386,17,Vexing - One Back Task,B,0.0,3.0,,2022.77,4
1387,17,Vexing - One Back Task,B,141.0,4.0,4.0,2024.9375,4
1388,17,Vexing - One Back Task,U,209.0,3.0,3.0,2027.004,4
1389,17,Vexing - One Back Task,F,279.0,3.0,3.0,2029.069,4
1390,17,Vexing - One Back Task,F,408.0,4.0,4.0,2030.987,4
1391,17,Vexing - One Back Task,T,331.0,3.0,3.0,2033.0190000000002,4
1392,17,Vexing - One Back Task,T,455.0,4.0,4.0,2035.036,4
1393,17,Vexing - One Back Task,O,376.0,3.0,3.0,2037.1689999999999,4
1394,17,Vexing - One Back Task,R,316.0,3.0,3.0,2039.2350000000001,4
1395,17,Vexing - One Back Task,Q,467.0,3.0,3.0,2041.252,4
1396,17,Vexing - One Back Task,X,321.0,3.0,3.0,2043.4015,4
1397,17,Vexing - One Back Task,X,373.0,4.0,4.0,2045.4180000000001,4
1398,17,Vexing - One Back Task,R,11.0,3.0,3.0,2047.4505,4
1399,17,Vexing - One Back Task,S,442.0,3.0,3.0,2049.5165,4
1400,17,Vexing - One Back Task,S,0.0,4.0,,2051.6165,4
1401,17,Vexing - One Back Task,L,120.0,3.0,3.0,2053.784,4
1402,17,Vexing - One Back Task,Q,1.0,3.0,3.0,2055.866,4
1403,17,Vexing - One Back Task,R,153.0,3.0,3.0,2057.9155,4
1404,17,Vexing - One Back Task,B,432.0,3.0,3.0,2059.965,4
1405,17,Vexing - One Back Task,F,356.0,3.0,3.0,2062.0660000000003,4
1406,17,Vexing - One Back Task,E,435.0,3.0,3.0,2064.148,4
1407,17,Vexing - One Back Task,'Y',0.0,3.0,,2066.1975,4
1408,1,Calming - One Back Task,L,0.0,3.0,,0.0,8
1409,1,Calming - One Back Task,A,0.0,3.0,,2.100500000000011,8
1410,1,Calming - One Back Task,E,1143.0,3.0,4.0,4.267499999999927,8
1411,1,Calming - One Back Task,E,143.0,4.0,3.0,6.332499999999982,8
1412,1,Calming - One Back Task,E,110.0,4.0,4.0,8.182999999999993,8
1413,1,Calming - One Back Task,O,1464.0,3.0,3.0,10.26649999999995,8
1414,1,Calming - One Back Task,A,1133.0,4.0,3.0,12.399000000000001,8
1415,1,Calming - One Back Task,A,897.0,4.0,3.0,14.482499999999959,8
1416,1,Calming - One Back Task,H,456.0,3.0,3.0,16.54849999999999,8
1417,1,Calming - One Back Task,J,97.0,3.0,3.0,18.632999999999925,8
1418,1,Calming - One Back Task,D,82.0,3.0,3.0,20.698999999999955,8
1419,1,Calming - One Back Task,B,415.0,3.0,3.0,22.764999999999986,8
1420,1,Calming - One Back Task,L,383.0,3.0,3.0,24.864499999999907,8
1421,1,Calming - One Back Task,V,415.0,3.0,3.0,26.94799999999998,8
1422,1,Calming - One Back Task,V,69.0,4.0,4.0,29.097499999999968,8
1423,1,Calming - One Back Task,N,166.0,3.0,3.0,31.197000000000003,8
1424,1,Calming - One Back Task,V,589.0,3.0,4.0,33.296499999999924,8
1425,1,Calming - One Back Task,L,812.0,3.0,3.0,35.34649999999999,8
1426,1,Calming - One Back Task,A,1013.0,3.0,3.0,37.42949999999996,8
1427,1,Calming - One Back Task,E,780.0,3.0,3.0,39.51249999999993,8
1428,1,Calming - One Back Task,J,569.0,3.0,3.0,41.611999999999966,8
1429,1,Calming - One Back Task,S,399.0,3.0,3.0,43.71199999999999,8
1430,2,Calming - Three Back Task,P,0.0,3.0,,60.84299999999996,8
1431,2,Calming - Three Back Task,F,0.0,3.0,,62.959499999999935,8
1432,2,Calming - Three Back Task,Q,0.0,3.0,,65.07499999999993,8
1433,2,Calming - Three Back Task,C,109.0,3.0,4.0,67.19099999999992,8
1434,2,Calming - Three Back Task,N,0.0,3.0,,69.22399999999993,8
1435,2,Calming - Three Back Task,P,524.0,3.0,3.0,71.4085,8
1436,2,Calming - Three Back Task,C,1264.0,4.0,3.0,73.49199999999996,8
1437,2,Calming - Three Back Task,N,1165.0,3.0,4.0,75.57499999999993,8
1438,2,Calming - Three Back Task,P,558.0,4.0,3.0,77.65749999999991,8
1439,2,Calming - Three Back Task,C,866.0,4.0,3.0,79.72399999999993,8
1440,2,Calming - Three Back Task,N,453.0,4.0,4.0,81.77299999999991,8
1441,2,Calming - Three Back Task,V,942.0,3.0,3.0,83.82249999999999,8
1442,2,Calming - Three Back Task,Q,1287.0,3.0,4.0,85.88999999999999,8
1443,2,Calming - Three Back Task,M,890.0,3.0,3.0,87.93949999999995,8
1444,2,Calming - Three Back Task,H,0.0,3.0,,89.98849999999993,8
1445,2,Calming - Three Back Task,Q,56.0,4.0,4.0,92.1055,8
1446,2,Calming - Three Back Task,X,672.0,3.0,3.0,93.80549999999994,8
1447,2,Calming - Three Back Task,N,484.0,3.0,3.0,95.8549999999999,8
1448,2,Calming - Three Back Task,Z,0.0,3.0,,97.92149999999992,8
1449,2,Calming - Three Back Task,F,130.0,3.0,4.0,100.08799999999997,8
1450,2,Calming - Three Back Task,C,329.0,3.0,3.0,101.904,8
1451,2,Calming - Three Back Task,H,0.0,3.0,,103.803,8
1452,3,Calming - Three Back Task,D,0.0,3.0,,120.86749999999995,8
1453,3,Calming - Three Back Task,X,0.0,3.0,,122.95150000000001,8
1454,3,Calming - Three Back Task,M,0.0,3.0,,125.101,8
1455,3,Calming - Three Back Task,I,522.0,3.0,3.0,127.20049999999992,8
1456,3,Calming - Three Back Task,X,825.0,3.0,4.0,129.2505,8
1457,3,Calming - Three Back Task,M,1047.0,4.0,4.0,131.317,8
1458,3,Calming - Three Back Task,P,1297.0,3.0,3.0,133.34899999999993,8
1459,3,Calming - Three Back Task,S,777.0,3.0,3.0,135.39999999999998,8
1460,3,Calming - Three Back Task,A,1218.0,3.0,3.0,137.4325,8
1461,3,Calming - Three Back Task,N,1362.0,3.0,4.0,139.50099999999998,8
1462,3,Calming - Three Back Task,W,666.0,3.0,3.0,141.56549999999993,8
1463,3,Calming - Three Back Task,V,483.0,3.0,3.0,143.63199999999995,8
1464,3,Calming - Three Back Task,A,768.0,3.0,4.0,145.68099999999993,8
1465,3,Calming - Three Back Task,W,488.0,4.0,3.0,147.71499999999992,8
1466,3,Calming - Three Back Task,B,0.0,3.0,,149.7645,8
1467,3,Calming - Three Back Task,A,96.0,4.0,3.0,151.8465,8
1468,3,Calming - Three Back Task,Y,79.0,3.0,4.0,153.8795,8
1469,3,Calming - Three Back Task,B,438.0,4.0,3.0,155.9124999999999,8
1470,3,Calming - Three Back Task,A,334.0,4.0,4.0,157.9124999999999,8
1471,3,Calming - Three Back Task,R,547.0,3.0,3.0,159.812,8
1472,3,Calming - Three Back Task,P,652.0,3.0,3.0,161.8454999999999,8
1473,3,Calming - Three Back Task,C,1003.0,3.0,3.0,163.89599999999996,8
1474,4,Calming - One Back Task,V,0.0,3.0,,180.97799999999995,8
1475,4,Calming - One Back Task,I,342.0,3.0,3.0,183.1434999999999,8
1476,4,Calming - One Back Task,Q,343.0,3.0,3.0,185.24399999999991,8
1477,4,Calming - One Back Task,H,117.0,3.0,3.0,187.30999999999995,8
1478,4,Calming - One Back Task,C,460.0,3.0,3.0,189.3755,8
1479,4,Calming - One Back Task,N,484.0,3.0,3.0,191.54149999999993,8
1480,4,Calming - One Back Task,V,435.0,3.0,3.0,193.659,8
1481,4,Calming - One Back Task,Y,127.0,3.0,3.0,195.70749999999998,8
1482,4,Calming - One Back Task,Y,9.0,4.0,4.0,197.7924999999999,8
1483,4,Calming - One Back Task,K,244.0,3.0,3.0,199.89199999999994,8
1484,4,Calming - One Back Task,K,454.0,4.0,4.0,201.95799999999997,8
1485,4,Calming - One Back Task,I,396.0,3.0,3.0,204.04149999999993,8
1486,4,Calming - One Back Task,I,249.0,4.0,4.0,206.0904999999999,8
1487,4,Calming - One Back Task,O,318.0,3.0,3.0,208.14049999999997,8
1488,4,Calming - One Back Task,E,0.0,3.0,,210.18949999999995,8
1489,4,Calming - One Back Task,D,0.0,3.0,,212.27199999999993,8
1490,4,Calming - One Back Task,V,0.0,3.0,,214.3884999999999,8
1491,4,Calming - One Back Task,V,244.0,4.0,3.0,216.48849999999993,8
1492,4,Calming - One Back Task,N,179.0,3.0,3.0,218.423,8
1493,4,Calming - One Back Task,N,496.0,4.0,4.0,220.48899999999992,8
1494,4,Calming - One Back Task,D,820.0,3.0,3.0,222.52099999999996,8
1495,4,Calming - One Back Task,W,402.0,3.0,3.0,224.5714999999999,8
1496,5,Calming - Three Back Task,C,0.0,3.0,,241.6194999999999,8
1497,5,Calming - Three Back Task,B,0.0,3.0,,243.75299999999993,8
1498,5,Calming - Three Back Task,Q,0.0,3.0,,245.91899999999998,8
1499,5,Calming - Three Back Task,Y,205.0,3.0,3.0,248.06799999999998,8
1500,5,Calming - Three Back Task,R,384.0,3.0,3.0,250.11799999999994,8
1501,5,Calming - Three Back Task,I,371.0,3.0,3.0,252.14999999999998,8
1502,5,Calming - Three Back Task,Y,256.0,4.0,4.0,254.2009999999999,8
1503,5,Calming - Three Back Task,N,364.0,3.0,3.0,256.2845,8
1504,5,Calming - Three Back Task,Y,951.0,3.0,3.0,258.40099999999995,8
1505,5,Calming - Three Back Task,X,461.0,3.0,3.0,260.51649999999995,8
1506,5,Calming - Three Back Task,F,1021.0,3.0,3.0,262.5999999999999,8
1507,5,Calming - Three Back Task,U,0.0,3.0,,264.69999999999993,8
1508,5,Calming - Three Back Task,H,288.0,4.0,3.0,266.9335,8
1509,5,Calming - Three Back Task,U,162.0,3.0,3.0,269.01599999999996,8
1510,5,Calming - Three Back Task,U,1053.0,3.0,3.0,271.0809999999999,8
1511,5,Calming - Three Back Task,H,441.0,4.0,4.0,273.1474999999999,8
1512,5,Calming - Three Back Task,W,233.0,3.0,4.0,275.23199999999997,8
1513,5,Calming - Three Back Task,U,1100.0,4.0,3.0,277.298,8
1514,5,Calming - Three Back Task,H,0.0,4.0,,279.381,8
1515,5,Calming - Three Back Task,F,115.0,3.0,4.0,281.514,8
1516,5,Calming - Three Back Task,I,204.0,3.0,3.0,283.3309999999999,8
1517,5,Calming - Three Back Task,V,77.0,3.0,3.0,285.17949999999996,8
1518,6,Calming - One Back Task,U,0.0,3.0,,302.26,8
1519,6,Calming - One Back Task,R,84.0,3.0,3.0,304.3934999999999,8
1520,6,Calming - One Back Task,O,194.0,3.0,3.0,306.46349999999995,8
1521,6,Calming - One Back Task,P,90.0,3.0,3.0,308.5095,8
1522,6,Calming - One Back Task,P,348.0,4.0,4.0,310.55949999999996,8
1523,6,Calming - One Back Task,P,292.0,4.0,4.0,312.6429999999999,8
1524,6,Calming - One Back Task,U,172.0,3.0,3.0,314.726,8
1525,6,Calming - One Back Task,Z,77.0,3.0,3.0,316.7924999999999,8
1526,6,Calming - One Back Task,U,765.0,3.0,3.0,318.8929999999999,8
1527,6,Calming - One Back Task,M,309.0,3.0,3.0,321.01099999999997,8
1528,6,Calming - One Back Task,M,248.0,4.0,4.0,323.10849999999994,8
1529,6,Calming - One Back Task,W,363.0,3.0,3.0,325.20799999999997,8
1530,6,Calming - One Back Task,I,1117.0,3.0,3.0,327.308,8
1531,6,Calming - One Back Task,F,0.0,3.0,,329.4079999999999,8
1532,6,Calming - One Back Task,M,879.0,3.0,3.0,331.54049999999995,8
1533,6,Calming - One Back Task,A,427.0,3.0,3.0,333.6239999999999,8
1534,6,Calming - One Back Task,G,244.0,3.0,3.0,335.707,8
1535,6,Calming - One Back Task,G,142.0,4.0,4.0,337.8069999999999,8
1536,6,Calming - One Back Task,R,578.0,3.0,3.0,339.89149999999995,8
1537,6,Calming - One Back Task,Q,275.0,3.0,3.0,341.9565,8
1538,6,Calming - One Back Task,R,461.0,4.0,3.0,344.039,8
1539,6,Calming - One Back Task,Q,567.0,3.0,3.0,346.08799999999997,8
1540,7,Calming - One Back Task,S,0.0,3.0,,363.13649999999996,8
1541,7,Calming - One Back Task,R,638.0,3.0,3.0,365.2355,8
1542,7,Calming - One Back Task,V,281.0,3.0,3.0,367.3025,8
1543,7,Calming - One Back Task,V,619.0,4.0,3.0,369.3689999999999,8
1544,7,Calming - One Back Task,O,808.0,3.0,3.0,371.40199999999993,8
1545,7,Calming - One Back Task,A,227.0,3.0,3.0,373.452,8
1546,7,Calming - One Back Task,C,294.0,3.0,3.0,375.4844999999999,8
1547,7,Calming - One Back Task,N,210.0,3.0,3.0,377.5519999999999,8
1548,7,Calming - One Back Task,Y,77.0,3.0,3.0,379.61699999999996,8
1549,7,Calming - One Back Task,V,623.0,3.0,4.0,381.7004999999999,8
1550,7,Calming - One Back Task,V,352.0,4.0,4.0,383.7674999999999,8
1551,7,Calming - One Back Task,J,189.0,3.0,3.0,385.83399999999995,8
1552,7,Calming - One Back Task,U,884.0,3.0,3.0,387.8829999999999,8
1553,7,Calming - One Back Task,U,452.0,4.0,4.0,389.94849999999997,8
1554,7,Calming - One Back Task,U,298.0,4.0,4.0,392.01649999999995,8
1555,7,Calming - One Back Task,Y,311.0,3.0,3.0,394.0825,8
1556,7,Calming - One Back Task,Y,225.0,4.0,4.0,396.13149999999996,8
1557,7,Calming - One Back Task,J,99.0,3.0,3.0,398.19899999999996,8
1558,7,Calming - One Back Task,I,474.0,3.0,3.0,400.24799999999993,8
1559,7,Calming - One Back Task,S,841.0,3.0,3.0,402.28099999999995,8
1560,7,Calming - One Back Task,U,509.0,3.0,3.0,404.365,8
1561,7,Calming - One Back Task,P,268.0,3.0,3.0,406.448,8
1562,8,Calming - Three Back Task,L,0.0,3.0,,423.51099999999997,8
1563,8,Calming - Three Back Task,A,0.0,3.0,,425.6785,8
1564,8,Calming - Three Back Task,P,0.0,3.0,,427.79549999999995,8
1565,8,Calming - Three Back Task,L,257.0,4.0,4.0,429.91099999999994,8
1566,8,Calming - Three Back Task,A,774.0,4.0,4.0,431.943,8
1567,8,Calming - Three Back Task,N,353.0,3.0,3.0,433.9765,8
1568,8,Calming - Three Back Task,W,591.0,3.0,3.0,436.0095,8
1569,8,Calming - Three Back Task,C,390.0,3.0,3.0,438.0424999999999,8
1570,8,Calming - Three Back Task,L,1062.0,3.0,4.0,440.0754999999999,8
1571,8,Calming - Three Back Task,W,1269.0,4.0,3.0,442.10849999999994,8
1572,8,Calming - Three Back Task,U,671.0,3.0,3.0,444.14150000000006,8
1573,8,Calming - Three Back Task,S,354.0,3.0,3.0,446.17449999999997,8
1574,8,Calming - Three Back Task,W,950.0,4.0,4.0,448.20749999999987,8
1575,8,Calming - Three Back Task,Y,1013.0,3.0,3.0,450.2409999999999,8
1576,8,Calming - Three Back Task,F,711.0,3.0,3.0,452.274,8
1577,8,Calming - Three Back Task,L,800.0,3.0,4.0,454.3069999999999,8
1578,8,Calming - Three Back Task,Y,1325.0,4.0,4.0,456.34000000000003,8
1579,8,Calming - Three Back Task,U,280.0,3.0,3.0,458.37299999999993,8
1580,8,Calming - Three Back Task,L,400.0,3.0,4.0,460.40600000000006,8
1581,8,Calming - Three Back Task,I,13.0,3.0,3.0,462.389,8
1582,8,Calming - Three Back Task,B,506.0,3.0,3.0,464.40549999999996,8
1583,8,Calming - Three Back Task,T,1019.0,3.0,3.0,466.40549999999996,8
1584,10,Calming - Three Back Task,E,0.0,3.0,,498.43449999999996,8
1585,10,Calming - Three Back Task,G,0.0,3.0,,500.46749999999986,8
1586,10,Calming - Three Back Task,S,0.0,3.0,,502.50099999999986,8
1587,10,Calming - Three Back Task,J,590.0,3.0,3.0,504.5334999999999,8
1588,10,Calming - Three Back Task,Z,374.0,3.0,3.0,506.5334999999999,8
